sender,sender_type,sender_id,timestamp,correct,correctResponse,deviation,disp_x,disp_y,duration,ended_on,graphFlag,img,item1,item2,item3,item4,item5,item6,item7,max,max_index,response,response_action,size,time_commit,time_end,time_render,time_run,time_show,time_switch
Stimulus + Response,canvas.Screen,1_0_1,2021-06-03T01:53:46.978Z,true,3,5,-18,43,1158,response,1,graph-5-sd-2.png,24,26,31,21,28,0,0,31,3,3,click @3,5,157712,157715,156557,156545.00000000003,156579,157740
,flow.Sequence,1_0,2021-06-03T01:53:46.978Z,,,5,,,13454,completion,1,graph-5-sd-2.png,24,26,31,21,28,0,0,31,3,,,5,157713,157715,144231,144222,144261,157740
Stimulus + Response,canvas.Screen,1_1_1,2021-06-03T01:53:50.195Z,true,2,5,-24,-97,1123,response,0,number-3-sd-3.png,21,28,25,0,0,0,0,28,2,2,click @2,3,160929,160933,159810,159786,159827,160960
,flow.Sequence,1_1,2021-06-03T01:53:50.195Z,,,5,,,3193,completion,0,number-3-sd-3.png,21,28,25,0,0,0,0,28,2,,,3,160930,160933,157724,157713,157740,160960
Stimulus + Response,canvas.Screen,1_2_1,2021-06-03T01:53:53.018Z,true,4,15,-73,39,1779,response,0,number-5-ld-3.png,37,28,43,58,50,0,0,58,4,4,click @4,5,163753,163756,161977,161966,161994,163780
,flow.Sequence,1_2,2021-06-03T01:53:53.018Z,,,15,,,2796,completion,0,number-5-ld-3.png,37,28,43,58,50,0,0,58,4,,,5,163753,163756,160944,160930,160960,163780
Stimulus + Response,canvas.Screen,1_3_1,2021-06-03T01:53:55.688Z,true,1,15,-30,-17,1413,response,0,number-5-ld-4.png,44,36,15,30,24,0,0,44,1,1,click @1,5,166423,166427,165014,164998,165030,166462
,flow.Sequence,1_3,2021-06-03T01:53:55.688Z,,,15,,,2647,completion,0,number-5-ld-4.png,44,36,15,30,24,0,0,44,1,,,5,166423,166427,163763,163753,163780,166462
Stimulus + Response,canvas.Screen,1_4_1,2021-06-03T01:53:58.616Z,true,5,15,33,82,1557,response,0,number-5-ld-1.png,27,40,19,33,48,0,0,48,5,5,click @5,5,169351,169354,167797,167773,167813,169382
,flow.Sequence,1_4,2021-06-03T01:53:58.616Z,,,15,,,2892,completion,0,number-5-ld-1.png,27,40,19,33,48,0,0,48,5,,,5,169351,169354,166446,166423,166462,169382
Stimulus + Response,canvas.Screen,1_5_1,2021-06-03T01:54:01.656Z,false,1,15,39,27,1997,response,0,number-7-ld-4.png,61,27,43,39,34,49,54,61,1,7,click @7,7,172391,172395,170398,170387,170415,172432
,flow.Sequence,1_5,2021-06-03T01:54:01.656Z,,,15,,,3013,completion,0,number-7-ld-4.png,61,27,43,39,34,49,54,61,1,,,7,172391,172395,169365,169351,169382,172432
Stimulus + Response,canvas.Screen,1_6_1,2021-06-03T01:54:04.543Z,true,6,15,74,-100,1480,response,0,number-7-ld-5.png,43,38,27,48,19,56,33,56,6,6,click @6,7,175278,175282,173802,173781,173818,175318
,flow.Sequence,1_6,2021-06-03T01:54:04.543Z,,,15,,,2850,completion,0,number-7-ld-5.png,43,38,27,48,19,56,33,56,6,,,7,175279,175282,172415,172391,172432,175318
Stimulus + Response,canvas.Screen,1_7_1,2021-06-03T01:54:07.045Z,true,6,5,-54,-52,1017,response,1,graph-7-sd-3.png,16,21,24,25,22,28,19,28,6,6,click @6,7,177781,177785,176768,176750,176785,177819
,flow.Sequence,1_7,2021-06-03T01:54:07.045Z,,,5,,,2467,completion,1,graph-7-sd-3.png,16,21,24,25,22,28,19,28,6,,,7,177781,177785,175302,175279,175318,177819
Stimulus + Response,canvas.Screen,1_8_1,2021-06-03T01:54:09.329Z,true,1,15,6,30,871.0000000000291,response,1,graph-5-ld-4.png,44,36,15,30,24,0,0,44,1,1,click @1,5,180065,180069.00000000003,179198,179179,179215,180098
,flow.Sequence,1_8,2021-06-03T01:54:09.330Z,,,15,,,2250.000000000029,completion,1,graph-5-ld-4.png,44,36,15,30,24,0,0,44,1,,,5,180065,180069.00000000003,177802,177781,177819,180098
Stimulus + Response,canvas.Screen,1_9_1,2021-06-03T01:54:11.372Z,true,2,15,-4,-55,931,response,1,graph-5-ld-5.png,47,75,61,54,68,0,0,75,2,2,click @2,5,182108,182112,181181,181166,181198,182147
,flow.Sequence,1_9,2021-06-03T01:54:11.372Z,,,15,,,2014,completion,1,graph-5-ld-5.png,47,75,61,54,68,0,0,75,2,,,5,182108,182112,180081,180065,180098,182147
Stimulus + Response,canvas.Screen,1_10_1,2021-06-03T01:54:13.705Z,true,4,5,-76,55,1297,response,0,number-7-sd-5.png,21,16,19,24,18,15,12,24,4,4,click @4,7,184441,184445,183148,183136,183165,184470
,flow.Sequence,1_10,2021-06-03T01:54:13.706Z,,,5,,,2298,completion,0,number-7-sd-5.png,21,16,19,24,18,15,12,24,4,,,7,184441,184445,182132,182108,182147,184470
Stimulus + Response,canvas.Screen,1_11_1,2021-06-03T01:54:16.593Z,false,6,15,-91,-48,1595,response,0,number-7-ld-1.png,42,38,52,33,26,60,47,60,6,7,click @7,7,187328,187333,185738,185718.00000000003,185754,187371
,flow.Sequence,1_11,2021-06-03T01:54:16.593Z,,,15,,,2863,completion,0,number-7-ld-1.png,42,38,52,33,26,60,47,60,6,,,7,187329,187333,184453,184441,184470,187371
Stimulus + Response,canvas.Screen,1_12_1,2021-06-03T01:54:19.070Z,true,3,15,72,-40,901,response,1,graph-3-ld-1.png,52,43,63,0,0,0,0,63,3,3,click @3,3,189805,189810,188909,188895,188924,189841
,flow.Sequence,1_12,2021-06-03T01:54:19.070Z,,,15,,,2439,completion,1,graph-3-ld-1.png,52,43,63,0,0,0,0,63,3,,,3,189805,189810,187354,187329,187371,189841
Stimulus + Response,canvas.Screen,1_13_1,2021-06-03T01:54:22.085Z,true,3,5,87,-61,1584,response,1,graph-5-sd-4.png,70,68,75,65,72,0,0,75,3,3,click @3,5,192821,192826,191242,191220,191258,192858
,flow.Sequence,1_13,2021-06-03T01:54:22.086Z,,,5,,,2985,completion,1,graph-5-sd-4.png,70,68,75,65,72,0,0,75,3,,,5,192821,192826,189825,189806,189841,192858
Stimulus + Response,canvas.Screen,1_14_1,2021-06-03T01:54:25.706Z,false,6,5,-25,-50,1854,response,0,number-7-sd-3.png,16,21,24,25,22,28,19,28,6,4,click @4,7,196441,196446,194592,194566,194607,196474
,flow.Sequence,1_14,2021-06-03T01:54:25.706Z,,,5,,,3588,completion,0,number-7-sd-3.png,16,21,24,25,22,28,19,28,6,,,7,196442,196446,192842,192821,192858,196474
Stimulus + Response,canvas.Screen,1_15_1,2021-06-03T01:54:28.110Z,true,3,5,-100,13,826,response,1,graph-3-sd-4.png,15,11,18,0,0,0,0,18,3,3,click @3,3,198846,198851,198025,198001,198041,198877
,flow.Sequence,1_15,2021-06-03T01:54:28.111Z,,,5,,,2377,completion,1,graph-3-sd-4.png,15,11,18,0,0,0,0,18,3,,,3,198846,198851,196459,196442,196474,198877
Stimulus + Response,canvas.Screen,1_16_1,2021-06-03T01:54:30.516Z,true,2,5,-98,-45,1195,response,0,number-3-sd-2.png,54,57,51,0,0,0,0,57,2,2,click @2,3,201252,201256,200061,200044,200078,201294
,flow.Sequence,1_16,2021-06-03T01:54:30.516Z,,,5,,,2379,completion,0,number-3-sd-2.png,54,57,51,0,0,0,0,57,2,,,3,201252,201256,198860,198847,198877,201294
Stimulus + Response,canvas.Screen,1_17_1,2021-06-03T01:54:33.781Z,true,3,5,17,97,1993.000000000029,response,0,number-5-sd-4.png,70,68,75,65,72,0,0,75,3,3,click @3,5,204517,204521.00000000003,202528,202514,202544,204557
,flow.Sequence,1_17,2021-06-03T01:54:33.781Z,,,5,,,3227.000000000029,completion,0,number-5-sd-4.png,70,68,75,65,72,0,0,75,3,,,5,204517,204521.00000000003,201278,201252,201294,204557
Stimulus + Response,canvas.Screen,1_18_1,2021-06-03T01:54:37.545Z,true,5,5,0,42,2512,response,0,number-5-sd-3.png,81,77,84,79,86,0,0,86,5,5,click @5,5,208281,208286,205774,205754,205791,208324
,flow.Sequence,1_18,2021-06-03T01:54:37.545Z,,,5,,,3729,completion,0,number-5-sd-3.png,81,77,84,79,86,0,0,86,5,,,5,208282,208286,204540,204517,204557,208324
Stimulus + Response,canvas.Screen,1_19_1,2021-06-03T01:54:39.829Z,true,6,15,62,48,994,response,1,graph-7-ld-5.png,43,38,27,48,19,56,33,56,6,6,click @6,7,210565,210570,209576,209559,209593,210593
,flow.Sequence,1_19,2021-06-03T01:54:39.829Z,,,15,,,2246,completion,1,graph-7-ld-5.png,43,38,27,48,19,56,33,56,6,,,7,210566,210570,208307,208282,208324,210593
Stimulus + Response,canvas.Screen,1_20_1,2021-06-03T01:54:42.427Z,true,2,15,-57,-76,1359,response,0,number-5-ld-2.png,1,28,8,14,20,0,0,28,2,2,click @2,5,213164.00000000003,213169,211810,211794,211825,213192
,flow.Sequence,1_20,2021-06-03T01:54:42.428Z,,,15,,,2576,completion,0,number-5-ld-2.png,1,28,8,14,20,0,0,28,2,,,5,213164.00000000003,213169,210576,210566,210593,213192
Stimulus + Response,canvas.Screen,1_21_1,2021-06-03T01:54:44.937Z,true,1,5,99,40,1299,response,0,number-3-sd-5.png,83,76,80,0,0,0,0,83,1,1,click @1,3,215673,215678,214379,214360,214395,215711
,flow.Sequence,1_21,2021-06-03T01:54:44.937Z,,,5,,,2486,completion,0,number-3-sd-5.png,83,76,80,0,0,0,0,83,1,,,3,215673,215678,213176,213164.00000000003,213192,215711
Stimulus + Response,canvas.Screen,1_22_1,2021-06-03T01:54:46.995Z,true,3,15,-21,-53,908,response,1,graph-3-ld-2.png,52,62,72,0,0,0,0,72,3,3,click @3,3,217731,217737,216829,216814,216845,217762
,flow.Sequence,1_22,2021-06-03T01:54:46.995Z,,,15,,,2026,completion,1,graph-3-ld-2.png,52,62,72,0,0,0,0,72,3,,,3,217732,217737,215694,215673,215711,217762
Stimulus + Response,canvas.Screen,1_23_1,2021-06-03T01:54:49.159Z,true,3,15,0,-62,1120,response,0,number-3-ld-2.png,52,62,72,0,0,0,0,72,3,3,click @3,3,219896.00000000003,219901,218781,218768,218797,219931
,flow.Sequence,1_23,2021-06-03T01:54:49.159Z,,,15,,,2139,completion,0,number-3-ld-2.png,52,62,72,0,0,0,0,72,3,,,3,219896.00000000003,219901,217745,217732,217762,219931
Stimulus + Response,canvas.Screen,1_24_1,2021-06-03T01:54:51.716Z,true,5,5,-23,-1,1160,response,1,graph-7-sd-2.png,55,48,52,57,59,50,53,59,5,5,click @5,7,222453,222458,221298,221286,221313,222480
,flow.Sequence,1_24,2021-06-03T01:54:51.717Z,,,5,,,2527,completion,1,graph-7-sd-2.png,55,48,52,57,59,50,53,59,5,,,7,222453,222458,219914,219896.00000000003,219931,222480
Stimulus + Response,canvas.Screen,1_25_1,2021-06-03T01:54:54.049Z,true,7,5,63,64,1326,response,1,graph-7-sd-1.png,27,34,31,36,33,30,39,39,7,7,click @7,7,224785,224791,223465,223449,223482,224816
,flow.Sequence,1_25,2021-06-03T01:54:54.049Z,,,5,,,2311,completion,1,graph-7-sd-1.png,27,34,31,36,33,30,39,39,7,,,7,224786,224791,222464,222453,222480,224816
Stimulus + Response,canvas.Screen,1_26_1,2021-06-03T01:54:55.931Z,true,3,15,-90,-60,791,response,1,graph-3-ld-5.png,10,19,30,0,0,0,0,30,3,3,click @3,3,226668,226673,225882,225870,225900,226699
,flow.Sequence,1_26,2021-06-03T01:54:55.932Z,,,15,,,1857,completion,1,graph-3-ld-5.png,10,19,30,0,0,0,0,30,3,,,3,226668,226673,224799,224786,224816,226699
Stimulus + Response,canvas.Screen,1_27_1,2021-06-03T01:54:58.030Z,true,1,5,-89,-79,1090,response,1,graph-5-sd-5.png,70,63,67,65,60,0,0,70,1,1,click @1,5,228767,228772,227682,227663,227699,228800
,flow.Sequence,1_27,2021-06-03T01:54:58.030Z,,,5,,,2073,completion,1,graph-5-sd-5.png,70,63,67,65,60,0,0,70,1,,,5,228767,228772,226683,226668,226699,228800
Stimulus + Response,canvas.Screen,1_28_1,2021-06-03T01:55:00.595Z,true,5,5,61,17,1454,response,1,graph-5-sd-3.png,81,77,84,79,86,0,0,86,5,5,click @5,5,231332,231338,229884,229867.00000000003,229900,231367
,flow.Sequence,1_28,2021-06-03T01:55:00.596Z,,,5,,,2538,completion,1,graph-5-sd-3.png,81,77,84,79,86,0,0,86,5,,,5,231332,231338,228784,228767,228800,231367
Stimulus + Response,canvas.Screen,1_29_1,2021-06-03T01:55:02.839Z,true,3,15,40,-55,1182,response,0,number-3-ld-1.png,52,43,63,0,0,0,0,63,3,3,click @3,3,233576,233582,232400,232376,232417,233620
,flow.Sequence,1_29,2021-06-03T01:55:02.839Z,,,15,,,2215,completion,0,number-3-ld-1.png,52,43,63,0,0,0,0,63,3,,,3,233576,233582,231350,231333,231367,233620
Stimulus + Response,canvas.Screen,1_30_1,2021-06-03T01:55:05.541Z,true,5,15,-35,-88,848,response,1,graph-5-ld-1.png,27,40,19,33,48,0,0,48,5,5,click @5,5,236278,236284,235436,235417,235453,236319
,flow.Sequence,1_30,2021-06-03T01:55:05.542Z,,,15,,,2664,completion,1,graph-5-ld-1.png,27,40,19,33,48,0,0,48,5,,,5,236278,236284,233603,233576,233620,236319
Stimulus + Response,canvas.Screen,1_31_1,2021-06-03T01:55:07.978Z,true,4,15,23,-62,1218,response,0,number-7-ld-2.png,53,58,35,71,63,48,42,71,4,4,click @4,7,238715,238721,237503,237484,237520,238744
,flow.Sequence,1_31,2021-06-03T01:55:07.978Z,,,15,,,2402,completion,0,number-7-ld-2.png,53,58,35,71,63,48,42,71,4,,,7,238715,238721,236302,236279,236319,238744
Stimulus + Response,canvas.Screen,1_32_1,2021-06-03T01:55:11.421Z,true,7,5,-37,47,2119.000000000029,response,0,number-7-sd-1.png,27,34,31,36,33,30,39,39,7,7,click @7,7,242158.00000000003,242164.00000000003,240045,240017,240060,242193
,flow.Sequence,1_32,2021-06-03T01:55:11.421Z,,,5,,,3420.000000000029,completion,0,number-7-sd-1.png,27,34,31,36,33,30,39,39,7,,,7,242158.00000000003,242164.00000000003,238728,238716,238744,242193
Stimulus + Response,canvas.Screen,1_33_1,2021-06-03T01:55:13.906Z,true,1,15,-36,74,1101,response,0,number-3-ld-4.png,90,70,80,0,0,0,0,90,1,1,click @1,3,244643,244649,243548,243524,243564,244681
,flow.Sequence,1_33,2021-06-03T01:55:13.906Z,,,15,,,2456,completion,0,number-3-ld-4.png,90,70,80,0,0,0,0,90,1,,,3,244644,244649,242177,242158.00000000003,242193,244681
Stimulus + Response,canvas.Screen,1_34_1,2021-06-03T01:55:15.932Z,true,4,5,-65,56,912.0000000000291,response,1,graph-7-sd-5.png,21,16,19,24,18,15,12,24,4,4,click @4,7,246669,246676.00000000003,245764,245752,245780,246697
,flow.Sequence,1_34,2021-06-03T01:55:15.932Z,,,5,,,1995.000000000029,completion,1,graph-7-sd-5.png,21,16,19,24,18,15,12,24,4,,,7,246670.00000000003,246676.00000000003,244664,244644,244681,246697
Stimulus + Response,canvas.Screen,1_35_1,2021-06-03T01:55:18.257Z,false,2,5,48,82,1085,response,0,number-3-sd-1.png,71,75,68,0,0,0,0,75,2,3,click @3,3,248994,249000,247915,247899,247931,249034
,flow.Sequence,1_35,2021-06-03T01:55:18.257Z,,,5,,,2303,completion,0,number-3-sd-1.png,71,75,68,0,0,0,0,75,2,,,3,248994,249000,246681,246670.00000000003,246697,249034
Stimulus + Response,canvas.Screen,1_36_1,2021-06-03T01:55:20.613Z,true,2,15,-61,-43,906,response,1,graph-3-ld-3.png,21,43,32,0,0,0,0,43,2,2,click @2,3,251351,251357,250451,250441,250468,251383
,flow.Sequence,1_36,2021-06-03T01:55:20.614Z,,,15,,,2323,completion,1,graph-3-ld-3.png,21,43,32,0,0,0,0,43,2,,,3,251351,251357,249018,248994,249034,251383
Stimulus + Response,canvas.Screen,1_37_1,2021-06-03T01:55:22.865Z,true,1,15,24,75,841,response,1,graph-7-ld-4.png,61,27,43,39,34,49,54,61,1,1,click @1,7,253603,253609,252768,252757,252784,253644
,flow.Sequence,1_37,2021-06-03T01:55:22.865Z,,,15,,,2226,completion,1,graph-7-ld-4.png,61,27,43,39,34,49,54,61,1,,,7,253603,253609,251368,251351,251383,253644
Stimulus + Response,canvas.Screen,1_38_1,2021-06-03T01:55:26.139Z,true,1,15,-79,-62,2022.999999999971,response,0,number-7-ld-3.png,90,68,62,83,77,73,56,90,1,1,click @1,7,256876.00000000003,256882.99999999997,254860,254840,254877,256909
,flow.Sequence,1_38,2021-06-03T01:55:26.139Z,,,15,,,3238.999999999971,completion,0,number-7-ld-3.png,90,68,62,83,77,73,56,90,1,,,7,256876.00000000003,256882.99999999997,253627,253603,253644,256909
Stimulus + Response,canvas.Screen,1_39_1,2021-06-03T01:55:30.554Z,true,5,5,55,38,2905,response,0,number-7-sd-2.png,55,48,52,57,59,50,53,59,5,5,click @5,7,261292.00000000003,261298,258393,258370.99999999997,258410,261328
,flow.Sequence,1_39,2021-06-03T01:55:30.554Z,,,5,,,4389,completion,0,number-7-sd-2.png,55,48,52,57,59,50,53,59,5,,,7,261292.00000000003,261298,256893,256877,256909,261328
Stimulus + Response,canvas.Screen,1_40_1,2021-06-03T01:55:33.088Z,true,2,15,-21,94,1338,response,1,graph-5-ld-2.png,1,28,8,14,20,0,0,28,2,2,click @2,5,263825,263832,262494,262481,262511,263868
,flow.Sequence,1_40,2021-06-03T01:55:33.088Z,,,15,,,2504,completion,1,graph-5-ld-2.png,1,28,8,14,20,0,0,28,2,,,5,263826,263832,261312,261292.00000000003,261328,263868
Stimulus + Response,canvas.Screen,1_41_1,2021-06-03T01:55:35.203Z,true,2,5,-72,-61,1012,response,1,graph-3-sd-3.png,21,28,25,0,0,0,0,28,2,2,click @2,3,265941.00000000006,265947,264935,264910,264952,265968
,flow.Sequence,1_41,2021-06-03T01:55:35.203Z,,,5,,,2079,completion,1,graph-3-sd-3.png,21,28,25,0,0,0,0,28,2,,,3,265941.00000000006,265947,263852,263826,263868,265968
Stimulus + Response,canvas.Screen,1_42_1,2021-06-03T01:55:37.801Z,true,7,5,-59,-54,1427,response,1,graph-7-sd-4.png,33,37,36,31,34,29,39,39,7,7,click @7,7,268539,268545,267118,267098,267134,268569
,flow.Sequence,1_42,2021-06-03T01:55:37.801Z,,,5,,,2577,completion,1,graph-7-sd-4.png,33,37,36,31,34,29,39,39,7,,,7,268539,268545,265952,265941.00000000006,265968,268569
Stimulus + Response,canvas.Screen,1_43_1,2021-06-03T01:55:40.238Z,true,1,15,-71,-67,1097,response,1,graph-3-ld-4.png,90,70,80,0,0,0,0,90,1,1,click @1,3,270976,270983,269886,269865,269902,271019
,flow.Sequence,1_43,2021-06-03T01:55:40.238Z,,,15,,,2414,completion,1,graph-3-ld-4.png,90,70,80,0,0,0,0,90,1,,,3,270976,270983,268553,268539,268569,271019
Stimulus + Response,canvas.Screen,1_44_1,2021-06-03T01:55:42.731Z,false,2,15,-21,-2,1307,response,0,number-5-ld-5.png,47,75,61,54,68,0,0,75,2,5,click @5,5,273469,273476,272169,272141,272185,273509
,flow.Sequence,1_44,2021-06-03T01:55:42.731Z,,,15,,,2457,completion,0,number-5-ld-5.png,47,75,61,54,68,0,0,75,2,,,5,273469,273476,271003,270976,271019,273509
Stimulus + Response,canvas.Screen,1_45_1,2021-06-03T01:55:45.867Z,true,4,15,-100,-54,1203,response,1,graph-5-ld-3.png,37,28,43,58,50,0,0,58,4,4,click @4,5,276605,276612,275409,275397,275426,276642
,flow.Sequence,1_45,2021-06-03T01:55:45.867Z,,,15,,,3103,completion,1,graph-5-ld-3.png,37,28,43,58,50,0,0,58,4,,,5,276605,276612,273492,273469,273509,276642
Stimulus + Response,canvas.Screen,1_46_1,2021-06-03T01:55:48.311Z,true,4,15,-10,27,1065,response,1,graph-7-ld-2.png,53,58,35,71,63,48,42,71,4,4,click @4,7,279050,279057,277992,277979,278008,279078
,flow.Sequence,1_46,2021-06-03T01:55:48.312Z,,,15,,,2415,completion,1,graph-7-ld-2.png,53,58,35,71,63,48,42,71,4,,,7,279050,279057,276626,276605,276642,279078
Stimulus + Response,canvas.Screen,1_47_1,2021-06-03T01:55:51.215Z,true,2,15,32,-58,1332,response,0,number-3-ld-3.png,21,43,32,0,0,0,0,43,2,2,click @2,3,281953.00000000006,281960,280628,280609,280644,281994
,flow.Sequence,1_47,2021-06-03T01:55:51.215Z,,,15,,,2882,completion,0,number-3-ld-3.png,21,43,32,0,0,0,0,43,2,,,3,281953.00000000006,281960,279061,279050,279078,281994
Stimulus + Response,canvas.Screen,1_48_1,2021-06-03T01:55:53.748Z,true,3,5,8,-18,1215,response,0,number-3-sd-4.png,15,11,18,0,0,0,0,18,3,3,click @3,3,284486,284493,283278,283254,283293,284530
,flow.Sequence,1_48,2021-06-03T01:55:53.748Z,,,5,,,2499,completion,0,number-3-sd-4.png,15,11,18,0,0,0,0,18,3,,,3,284486,284493,281978,281953.00000000006,281994,284530
Stimulus + Response,canvas.Screen,1_49_1,2021-06-03T01:55:56.586Z,true,1,5,-73,64,1102,response,1,graph-3-sd-5.png,83,76,80,0,0,0,0,83,1,1,click @1,3,287324,287332,286230,286205,286245,287363
,flow.Sequence,1_49,2021-06-03T01:55:56.586Z,,,5,,,2802,completion,1,graph-3-sd-5.png,83,76,80,0,0,0,0,83,1,,,3,287324,287332,284513,284486,284530,287363
Stimulus + Response,canvas.Screen,1_50_1,2021-06-03T01:55:59.175Z,true,4,5,-97,-16,1725,response,0,number-5-sd-1.png,48,43,46,53,51,0,0,53,4,4,click @4,5,289914,289921,288196,288175,288212,289948
,flow.Sequence,1_50,2021-06-03T01:55:59.175Z,,,5,,,2558,completion,0,number-5-sd-1.png,48,43,46,53,51,0,0,53,4,,,5,289914,289921,287345,287325,287363,289948
Stimulus + Response,canvas.Screen,1_51_1,2021-06-03T01:56:02.834Z,true,7,5,87,7,2266,response,0,number-7-sd-4.png,33,37,36,31,34,29,39,39,7,7,click @7,7,293573,293581,291315,291304.00000000006,291330,293609
,flow.Sequence,1_51,2021-06-03T01:56:02.835Z,,,5,,,3633,completion,0,number-7-sd-4.png,33,37,36,31,34,29,39,39,7,,,7,293573,293581,289931,289914,289948,293609
Stimulus + Response,canvas.Screen,1_52_1,2021-06-03T01:56:06.277Z,true,3,5,54,-92,2047,response,0,number-5-sd-2.png,24,26,31,21,28,0,0,31,3,3,click @3,5,297015,297023,294976,294963,294992,297042
,flow.Sequence,1_52,2021-06-03T01:56:06.277Z,,,5,,,3414,completion,0,number-5-sd-2.png,24,26,31,21,28,0,0,31,3,,,5,297016,297023,293593,293573,293609,297042
Stimulus + Response,canvas.Screen,1_53_1,2021-06-03T01:56:08.730Z,true,3,15,-32,84,1151,response,0,number-3-ld-5.png,10,19,30,0,0,0,0,30,3,3,click @3,3,299468,299476,298325,298301,298343,299512
,flow.Sequence,1_53,2021-06-03T01:56:08.730Z,,,15,,,2434,completion,0,number-3-ld-5.png,10,19,30,0,0,0,0,30,3,,,3,299468,299476,297026,297016,297042,299512
Stimulus + Response,canvas.Screen,1_54_1,2021-06-03T01:56:10.708Z,true,4,5,-73,95,908,response,1,graph-5-sd-1.png,48,43,46,53,51,0,0,53,4,4,click @4,5,301447,301454,300546,300521,300561,301479
,flow.Sequence,1_54,2021-06-03T01:56:10.708Z,,,5,,,1942,completion,1,graph-5-sd-1.png,48,43,46,53,51,0,0,53,4,,,5,301447,301454,299495,299469,299512,301479
Stimulus + Response,canvas.Screen,1_55_1,2021-06-03T01:56:12.903Z,true,6,15,14,15,1038.0000000000582,response,1,graph-7-ld-1.png,42,38,52,33,26,60,47,60,6,6,click @6,7,303642,303650.00000000006,302612,302596,302628,303683
,flow.Sequence,1_55,2021-06-03T01:56:12.903Z,,,15,,,2171.000000000058,completion,1,graph-7-ld-1.png,42,38,52,33,26,60,47,60,6,,,7,303642,303650.00000000006,301461,301447,301479,303683
Stimulus + Response,canvas.Screen,1_56_1,2021-06-03T01:56:15.428Z,true,1,5,-62,64,1374,response,0,number-5-sd-5.png,70,63,67,65,60,0,0,70,1,1,click @1,5,306167.00000000006,306175,304801,304775.00000000006,304817,306200
,flow.Sequence,1_56,2021-06-03T01:56:15.428Z,,,5,,,2492,completion,0,number-5-sd-5.png,70,63,67,65,60,0,0,70,1,,,5,306167.00000000006,306175,303667,303642,303683,306200
Stimulus + Response,canvas.Screen,1_57_1,2021-06-03T01:56:17.752Z,true,2,5,-71,-32,1115,response,1,graph-3-sd-2.png,54,57,51,0,0,0,0,57,2,2,click @2,3,308491,308499,307384,307364.00000000006,307401,308533
,flow.Sequence,1_57,2021-06-03T01:56:17.752Z,,,5,,,2299,completion,1,graph-3-sd-2.png,54,57,51,0,0,0,0,57,2,,,3,308491,308499,306184,306167.00000000006,306200,308533
Stimulus + Response,canvas.Screen,1_58_1,2021-06-03T01:56:19.851Z,true,1,15,-31,-59,1195,response,1,graph-7-ld-3.png,90,68,62,83,77,73,56,90,1,1,click @1,7,310590.00000000006,310598,309403,309390,309419,310619
,flow.Sequence,1_58,2021-06-03T01:56:19.851Z,,,15,,,2065,completion,1,graph-7-ld-3.png,90,68,62,83,77,73,56,90,1,,,7,310590.00000000006,310598,308516,308491,308533,310619
Stimulus + Response,canvas.Screen,1_59_1,2021-06-03T01:56:21.942Z,true,2,5,-11,-42,1053,response,1,graph-3-sd-1.png,71,75,68,0,0,0,0,75,2,2,click @2,3,312681,312689,311636,311617,311653,312719
,flow.Sequence,1_59,2021-06-03T01:56:21.942Z,,,5,,,2070,completion,1,graph-3-sd-1.png,71,75,68,0,0,0,0,75,2,,,3,312681,312689,310603,310590.00000000006,310619,312719
繰り返し（実験パラメータ）,flow.Loop,1,2021-06-03T01:56:21.942Z,,,,,,168428,completion,,,,,,,,,,,,,,,312681,312689,144231,144222,144261,312719