sender,sender_type,sender_id,timestamp,correct,correctResponse,deviation,disp_x,disp_y,duration,ended_on,graphFlag,img,item1,item2,item3,item4,item5,item6,item7,max,max_index,response,response_action,size,time_commit,time_end,time_render,time_run,time_show,time_switch
Stimulus + Response,canvas.Screen,1_0_1,2021-06-03T01:53:42.230Z,true,7,5,60,45,3463.272999998502,response,0,number-7-sd-1.png,27,34,31,36,33,30,39,39,7,7,click @7,7,161302.5,161299.3999999985,157819.461,157821.69999999553,157836.127,161319.321
,flow.Sequence,1_0,2021-06-03T01:53:42.231Z,,,5,,,7720.86099999852,completion,0,number-7-sd-1.png,27,34,31,36,33,30,39,39,7,,,7,161303.29999999702,161299.3999999985,153561.873,153578.5,153578.539,161319.321
Stimulus + Response,canvas.Screen,1_1_1,2021-06-03T01:53:47.636Z,true,6,15,25,-11,1620.6630000000005,response,1,graph-7-ld-5.png,43,38,27,48,19,56,33,56,6,6,click @6,7,166708.79999999702,166706.5,165069.171,165057.79999999702,165085.837,166719.105
,flow.Sequence,1_1,2021-06-03T01:53:47.637Z,,,15,,,5387.179000000004,completion,1,graph-7-ld-5.png,43,38,27,48,19,56,33,56,6,,,7,166709.09999999404,166706.5,161302.655,161303.5,161319.321,166719.105
Stimulus + Response,canvas.Screen,1_2_1,2021-06-03T01:53:52.351Z,true,4,15,70,2,1626.5059999940277,response,1,graph-5-ld-3.png,37,28,43,58,50,0,0,58,4,4,click @4,5,171423.09999999404,171421.09999999404,169777.928,169789.5,169794.594,171427.862
,flow.Sequence,1_2,2021-06-03T01:53:52.351Z,,,15,,,4701.994999994029,completion,1,graph-5-ld-3.png,37,28,43,58,50,0,0,58,4,,,5,171423.3999999985,171421.09999999404,166702.439,166709.19999999553,166719.105,171427.862
Stimulus + Response,canvas.Screen,1_3_1,2021-06-03T01:53:59.629Z,true,1,15,31,-24,1970.9499999940454,response,0,number-5-ld-4.png,44,36,15,30,24,0,0,44,1,1,click @1,5,178701,178698.59999999404,176710.984,176720.59999999404,176727.65,178710.904
,flow.Sequence,1_3,2021-06-03T01:53:59.629Z,,,15,,,7270.737999994046,completion,0,number-5-ld-4.png,44,36,15,30,24,0,0,44,1,,,5,178701.29999999702,178698.59999999404,171411.196,171423.59999999404,171427.862,178710.904
Stimulus + Response,canvas.Screen,1_4_1,2021-06-03T01:54:02.867Z,true,2,15,50,-98,1705.1419999985083,response,1,graph-5-ld-5.png,47,75,61,54,68,0,0,75,2,2,click @2,5,181938.69999999553,181936.3999999985,180214.592,180217.19999999553,180231.258,181947.856
,flow.Sequence,1_4,2021-06-03T01:54:02.867Z,,,15,,,3225.4959999985003,completion,1,graph-5-ld-5.png,47,75,61,54,68,0,0,75,2,,,5,181939,181936.3999999985,178694.238,178701.5,178710.904,181947.856
Stimulus + Response,canvas.Screen,1_5_1,2021-06-03T01:54:06.788Z,true,4,5,-100,91,1943.0560000000114,response,1,graph-7-sd-5.png,21,16,19,24,18,15,12,24,4,4,click @4,7,185860,185857.5,183897.778,183910.5,183914.444,185864.366
,flow.Sequence,1_5,2021-06-03T01:54:06.788Z,,,5,,,3909.6440000000002,completion,1,graph-7-sd-5.png,21,16,19,24,18,15,12,24,4,,,7,185860.19999999553,185857.5,181931.19,181939.19999999553,181947.856,185864.366
Stimulus + Response,canvas.Screen,1_6_1,2021-06-03T01:54:09.829Z,true,4,15,-64,70,1617.2239999955345,response,0,number-5-ld-3.png,37,28,43,58,50,0,0,58,4,4,click @4,5,188900.3999999985,188898.19999999553,187264.31,187266.69999999553,187280.976,188914.244
,flow.Sequence,1_6,2021-06-03T01:54:09.829Z,,,15,,,3033.8339999955206,completion,0,number-5-ld-3.png,37,28,43,58,50,0,0,58,4,,,5,188900.69999999553,188898.19999999553,185847.7,185860.3999999985,185864.366,188914.244
Stimulus + Response,canvas.Screen,1_7_1,2021-06-03T01:54:12.572Z,true,2,15,66,73,1126.3219999999856,response,1,graph-3-ld-3.png,21,43,32,0,0,0,0,43,2,2,click @2,3,191643.59999999404,191641,190498.012,190510.79999999702,190514.678,191647.966
,flow.Sequence,1_7,2021-06-03T01:54:12.572Z,,,15,,,2726.755999999994,completion,1,graph-3-ld-3.png,21,43,32,0,0,0,0,43,2,,,3,191643.8999999985,191641,188897.578,188900.79999999702,188914.244,191647.966
Stimulus + Response,canvas.Screen,1_8_1,2021-06-03T01:54:15.052Z,true,1,15,-100,92,1322.979999998497,response,1,graph-7-ld-4.png,61,27,43,39,34,49,54,61,1,1,click @1,7,194123.5,194120.8999999985,192781.254,192782.59999999404,192797.92,194131.2
,flow.Sequence,1_8,2021-06-03T01:54:15.052Z,,,15,,,2472.933999998524,completion,1,graph-7-ld-4.png,61,27,43,39,34,49,54,61,1,,,7,194123.8999999985,194120.8999999985,191631.3,191644,191647.966,194131.2
Stimulus + Response,canvas.Screen,1_9_1,2021-06-03T01:54:18.501Z,true,2,5,-14,90,1489.2779999985069,response,0,number-3-sd-3.png,21,28,25,0,0,0,0,28,2,2,click @2,3,197572.3999999985,197570.3999999985,196064.456,196079.19999999553,196081.122,197581.062
,flow.Sequence,1_9,2021-06-03T01:54:18.501Z,,,5,,,3439.1999999984982,completion,0,number-3-sd-3.png,21,28,25,0,0,0,0,28,2,,,3,197572.59999999404,197570.3999999985,194114.534,194124,194131.2,197581.062
Stimulus + Response,canvas.Screen,1_10_1,2021-06-03T01:54:21.457Z,false,6,15,22,86,1677.6219999970053,response,0,number-7-ld-1.png,42,38,52,33,26,60,47,60,6,3,click @3,7,200528,200525.29999999702,198831.012,198845.59999999404,198847.678,200537.657
,flow.Sequence,1_10,2021-06-03T01:54:21.457Z,,,15,,,2944.2379999970144,completion,0,number-7-ld-1.png,42,38,52,33,26,60,47,60,6,,,7,200528.29999999702,200525.29999999702,197564.396,197572.69999999553,197581.062,200537.657
Stimulus + Response,canvas.Screen,1_11_1,2021-06-03T01:54:24.867Z,true,1,5,-77,2,2214.9569999985106,response,1,graph-5-sd-5.png,70,63,67,65,60,0,0,70,1,1,click @1,5,203938.5,203935.8999999985,201704.277,201713.8999999985,201720.943,203954.187
,flow.Sequence,1_11,2021-06-03T01:54:24.867Z,,,5,,,3398.2429999985034,completion,1,graph-5-sd-5.png,70,63,67,65,60,0,0,70,1,,,5,203938.79999999702,203935.8999999985,200520.991,200528.3999999985,200537.657,203954.187
Stimulus + Response,canvas.Screen,1_12_1,2021-06-03T01:54:27.735Z,true,4,5,-98,-94,1449.869000000006,response,0,number-5-sd-1.png,48,43,46,53,51,0,0,53,4,4,click @4,5,206806.59999999404,206804,205337.465,205352.29999999702,205354.131,206820.739
,flow.Sequence,1_12,2021-06-03T01:54:27.736Z,,,5,,,2849.8129999999946,completion,0,number-5-sd-1.png,48,43,46,53,51,0,0,53,4,,,5,206806.8999999985,206804,203937.521,203938.8999999985,203954.187,206820.739
Stimulus + Response,canvas.Screen,1_13_1,2021-06-03T01:54:31.296Z,false,4,15,-95,74,1960.1909999955387,response,0,number-7-ld-2.png,53,58,35,71,63,48,42,71,4,2,click @2,7,210366.69999999553,210364.19999999553,208387.343,208393.69999999553,208404.009,210370.597
,flow.Sequence,1_13,2021-06-03T01:54:31.296Z,,,15,,,3543.4609999955283,completion,0,number-7-ld-2.png,53,58,35,71,63,48,42,71,4,,,7,210367,210364.19999999553,206804.073,206807,206820.739,210370.597
Stimulus + Response,canvas.Screen,1_14_1,2021-06-03T01:54:33.795Z,true,1,15,-15,-2,1143.0949999985169,response,1,graph-5-ld-4.png,44,36,15,30,24,0,0,44,1,1,click @1,5,212865.59999999404,212863.3999999985,211703.639,211718.09999999404,211720.305,212870.259
,flow.Sequence,1_14,2021-06-03T01:54:33.795Z,,,15,,,2492.802999998501,completion,1,graph-5-ld-4.png,44,36,15,30,24,0,0,44,1,,,5,212865.8999999985,212863.3999999985,210353.931,210367.09999999404,210370.597,212870.259
Stimulus + Response,canvas.Screen,1_15_1,2021-06-03T01:54:35.932Z,true,2,5,-50,74,880.1909999985073,response,1,graph-3-sd-1.png,71,75,68,0,0,0,0,75,2,2,click @2,3,215002.79999999702,215000.3999999985,214103.543,214107.19999999553,214120.209,215020.173
,flow.Sequence,1_15,2021-06-03T01:54:35.932Z,,,5,,,2130.140999998519,completion,1,graph-3-sd-1.png,71,75,68,0,0,0,0,75,2,,,3,215003.19999999553,215000.3999999985,212853.593,212866,212870.259,215020.173
Stimulus + Response,canvas.Screen,1_16_1,2021-06-03T01:54:38.164Z,true,2,5,90,4,929.1449999940523,response,1,graph-3-sd-3.png,21,28,25,0,0,0,0,28,2,2,click @2,3,217235.19999999553,217232.59999999404,216286.789,216299.5,216303.455,217236.751
,flow.Sequence,1_16,2021-06-03T01:54:38.165Z,,,5,,,2212.4269999940298,completion,1,graph-3-sd-3.png,21,28,25,0,0,0,0,28,2,,,3,217235.5,217232.59999999404,215003.507,215003.19999999553,215020.173,217236.751
Stimulus + Response,canvas.Screen,1_17_1,2021-06-03T01:54:40.452Z,true,1,5,8,35,1366.518999998516,response,0,number-5-sd-5.png,70,63,67,65,60,0,0,70,1,1,click @1,5,219522.59999999404,219519.8999999985,218136.715,218138.3999999985,218153.381,219536.659
,flow.Sequence,1_17,2021-06-03T01:54:40.452Z,,,5,,,2283.1489999985206,completion,0,number-5-sd-5.png,70,63,67,65,60,0,0,70,1,,,5,219522.8999999985,219519.8999999985,217220.085,217235.69999999553,217236.751,219536.659
Stimulus + Response,canvas.Screen,1_18_1,2021-06-03T01:54:43.759Z,true,6,15,-61,-82,2241.3830000000016,response,0,number-7-ld-5.png,43,38,27,48,19,56,33,56,6,6,click @6,7,222830.09999999404,222828,220569.951,220582.19999999553,220586.617,222845.127
,flow.Sequence,1_18,2021-06-03T01:54:43.760Z,,,15,,,3291.340999999986,completion,0,number-7-ld-5.png,43,38,27,48,19,56,33,56,6,,,7,222830.3999999985,222828,219519.993,219523,219536.659,222845.127
Stimulus + Response,canvas.Screen,1_19_1,2021-06-03T01:54:45.882Z,true,2,15,-100,-85,1138.1449999985052,response,0,number-5-ld-2.png,1,28,8,14,20,0,0,28,2,2,click @2,5,224952.5,224949.8999999985,223795.089,223804.59999999404,223811.755,224961.709
,flow.Sequence,1_19,2021-06-03T01:54:45.882Z,,,15,,,2104.772999998502,completion,0,number-5-ld-2.png,1,28,8,14,20,0,0,28,2,,,5,224952.79999999702,224949.8999999985,222828.461,222830.59999999404,222845.127,224961.709
Stimulus + Response,canvas.Screen,1_20_1,2021-06-03T01:54:48.200Z,true,1,5,-36,17,1140.070999998512,response,1,graph-3-sd-5.png,83,76,80,0,0,0,0,83,1,1,click @1,3,227271,227268.3999999985,226111.663,226115,226128.329,227278.283
,flow.Sequence,1_20,2021-06-03T01:54:48.201Z,,,5,,,2306.6909999985073,completion,1,graph-3-sd-5.png,83,76,80,0,0,0,0,83,1,,,3,227271.29999999702,227268.3999999985,224945.043,224952.8999999985,224961.709,227278.283
Stimulus + Response,canvas.Screen,1_21_1,2021-06-03T01:54:50.000Z,true,3,15,58,69,872.6869999940391,response,1,graph-3-ld-1.png,52,43,63,0,0,0,0,63,3,3,click @3,3,229070.09999999404,229067.59999999404,228178.247,228189.19999999553,228194.913,229078.211
,flow.Sequence,1_21,2021-06-03T01:54:50.000Z,,,15,,,1789.3169999940437,completion,1,graph-3-ld-1.png,52,43,63,0,0,0,0,63,3,,,3,229070.5,229067.59999999404,227261.617,227271.5,227278.283,229078.211
Stimulus + Response,canvas.Screen,1_22_1,2021-06-03T01:54:54.361Z,true,5,5,14,-54,3451.0249999955413,response,1,graph-5-sd-3.png,81,77,84,79,86,0,0,86,5,5,click @5,5,233431.3999999985,233429.19999999553,229961.509,229973.79999999702,229978.175,233444.703
,flow.Sequence,1_22,2021-06-03T01:54:54.361Z,,,5,,,4350.988999995519,completion,1,graph-5-sd-3.png,81,77,84,79,86,0,0,86,5,,,5,233431.69999999553,233429.19999999553,229061.545,229070.59999999404,229078.211,233444.703
Stimulus + Response,canvas.Screen,1_23_1,2021-06-03T01:54:56.483Z,true,3,5,57,94,1152.7789999984961,response,1,graph-3-sd-4.png,15,11,18,0,0,0,0,18,3,3,click @3,3,235553.59999999404,235550.8999999985,234381.455,234382.29999999702,234398.121,235564.741
,flow.Sequence,1_23,2021-06-03T01:54:56.484Z,,,5,,,2106.1969999985013,completion,1,graph-3-sd-4.png,15,11,18,0,0,0,0,18,3,,,3,235554,235550.8999999985,233428.037,233431.79999999702,233444.703,235564.741
Stimulus + Response,canvas.Screen,1_24_1,2021-06-03T01:54:58.872Z,true,1,15,-61,24,1408.9309999970137,response,0,number-7-ld-4.png,61,27,43,39,34,49,54,61,1,1,click @1,7,237942.69999999553,237940.29999999702,236514.703,236519.8999999985,236531.369,237947.979
,flow.Sequence,1_24,2021-06-03T01:54:58.873Z,,,15,,,2375.5589999970107,completion,0,number-7-ld-4.png,61,27,43,39,34,49,54,61,1,,,7,237942.8999999985,237940.29999999702,235548.075,235554.09999999404,235564.741,237947.979
Stimulus + Response,canvas.Screen,1_25_1,2021-06-03T01:55:01.756Z,true,4,5,10,-86,1792.7309999999998,response,1,graph-5-sd-1.png,48,43,46,53,51,0,0,53,4,4,click @4,5,240826.59999999404,240824,239014.603,239018.69999999553,239031.269,240831.197
,flow.Sequence,1_25,2021-06-03T01:55:01.757Z,,,5,,,2876.021000000008,completion,1,graph-5-sd-1.png,48,43,46,53,51,0,0,53,4,,,5,240826.8999999985,240824,237931.313,237943,237947.979,240831.197
Stimulus + Response,canvas.Screen,1_26_1,2021-06-03T01:55:03.399Z,true,2,5,-35,74,752.0050000000047,response,1,graph-3-sd-2.png,54,57,51,0,0,0,0,57,2,2,click @2,3,242469,242466.5,241697.829,241698.3999999985,241714.495,242481.996
,flow.Sequence,1_26,2021-06-03T01:55:03.399Z,,,5,,,1635.3030000000144,completion,1,graph-3-sd-2.png,54,57,51,0,0,0,0,57,2,,,3,242469.29999999702,242466.5,240814.531,240827.09999999404,240831.197,242481.996
Stimulus + Response,canvas.Screen,1_27_1,2021-06-03T01:55:05.645Z,true,1,15,-42,71,1198.2119999999995,response,0,number-7-ld-3.png,90,68,62,83,77,73,56,90,1,1,click @1,7,244715.3999999985,244713.5,243498.622,243512.5,243515.288,244731.906
,flow.Sequence,1_27,2021-06-03T01:55:05.646Z,,,15,,,2231.5039999999863,completion,0,number-7-ld-3.png,90,68,62,83,77,73,56,90,1,,,7,244715.79999999702,244713.5,242465.33,242469.5,242481.996,244731.906
Stimulus + Response,canvas.Screen,1_28_1,2021-06-03T01:55:07.721Z,true,1,15,-76,-60,1206.9279999970167,response,1,graph-7-ld-3.png,90,68,62,83,77,73,56,90,1,1,click @1,7,246791.5,246788.79999999702,245565.206,245571.3999999985,245581.872,246798.49
,flow.Sequence,1_28,2021-06-03T01:55:07.722Z,,,15,,,2056.8939999970316,completion,1,graph-7-ld-3.png,90,68,62,83,77,73,56,90,1,,,7,246791.79999999702,246788.79999999702,244715.24,244715.8999999985,244731.906,246798.49
Stimulus + Response,canvas.Screen,1_29_1,2021-06-03T01:55:10.652Z,true,5,5,70,81,1854.2859999985085,response,1,graph-7-sd-2.png,55,48,52,57,59,50,53,59,5,5,click @5,7,249721.69999999553,249719.3999999985,247848.448,247851.3999999985,247865.114,249731.706
,flow.Sequence,1_29,2021-06-03T01:55:10.652Z,,,5,,,2920.909999998519,completion,1,graph-7-sd-2.png,55,48,52,57,59,50,53,59,5,,,7,249722,249719.3999999985,246781.824,246791.8999999985,246798.49,249731.706
Stimulus + Response,canvas.Screen,1_30_1,2021-06-03T01:55:14.574Z,true,7,5,30,96,2976.297999997012,response,0,number-7-sd-4.png,33,37,36,31,34,29,39,39,7,7,click @7,7,253643.3999999985,253641.29999999702,250648.336,250649.09999999404,250665.002,253648.216
,flow.Sequence,1_30,2021-06-03T01:55:14.574Z,,,5,,,3909.593999997014,completion,0,number-7-sd-4.png,33,37,36,31,34,29,39,39,7,,,7,253643.69999999553,253641.29999999702,249715.04,249722.19999999553,249731.706,253648.216
Stimulus + Response,canvas.Screen,1_31_1,2021-06-03T01:55:16.974Z,true,4,15,-98,-93,1126.7679999940447,response,1,graph-7-ld-2.png,53,58,35,71,63,48,42,71,4,4,click @4,7,256044.19999999553,256041.59999999404,254898.166,254899.5,254914.832,256060.78
,flow.Sequence,1_31,2021-06-03T01:55:16.975Z,,,15,,,2393.3839999940537,completion,1,graph-7-ld-2.png,53,58,35,71,63,48,42,71,4,,,7,256044.5,256041.59999999404,253631.55,253643.79999999702,253648.216,256060.78
Stimulus + Response,canvas.Screen,1_32_1,2021-06-03T01:55:19.041Z,true,6,15,81,43,1130.2899999955262,response,1,graph-7-ld-1.png,42,38,52,33,26,60,47,60,6,6,click @6,7,258110.3999999985,258107.69999999553,256960.744,256970.69999999553,256977.41,258127.364
,flow.Sequence,1_32,2021-06-03T01:55:19.041Z,,,15,,,2046.9199999955308,completion,1,graph-7-ld-1.png,42,38,52,33,26,60,47,60,6,,,7,258110.69999999553,258107.69999999553,256044.114,256044.5,256060.78,258127.364
Stimulus + Response,canvas.Screen,1_33_1,2021-06-03T01:55:26.106Z,true,7,5,-31,74,3928.594000000012,response,1,graph-7-sd-4.png,33,37,36,31,34,29,39,39,7,7,click @7,7,265175.19999999553,265172.5,261227.24,261238.09999999404,261243.906,265177.082
,flow.Sequence,1_33,2021-06-03T01:55:26.106Z,,,5,,,7045.135999999999,completion,1,graph-7-sd-4.png,33,37,36,31,34,29,39,39,7,,,7,265175.3999999985,265172.5,258110.698,258110.79999999702,258127.364,265177.082
Stimulus + Response,canvas.Screen,1_34_1,2021-06-03T01:55:28.046Z,true,3,15,-69,4,802.8299999955343,response,1,graph-3-ld-5.png,10,19,30,0,0,0,0,30,3,3,click @3,3,267115.799999997,267113.19999999553,266293.704,266298.8999999985,266310.37,267132.328
,flow.Sequence,1_34,2021-06-03T01:55:28.047Z,,,15,,,1936.1179999955348,completion,1,graph-3-ld-5.png,10,19,30,0,0,0,0,30,3,,,3,267116.19999999553,267113.19999999553,265160.416,265175.59999999404,265177.082,267132.328
Stimulus + Response,canvas.Screen,1_35_1,2021-06-03T01:55:30.231Z,true,3,5,-10,-59,1165.5119999970193,response,0,number-3-sd-4.png,15,11,18,0,0,0,0,18,3,3,click @3,3,269300.5,269297.799999997,268115.622,268121.5,268132.288,269315.574
,flow.Sequence,1_35,2021-06-03T01:55:30.231Z,,,5,,,2165.4719999970403,completion,0,number-3-sd-4.png,15,11,18,0,0,0,0,18,3,,,3,269300.799999997,269297.799999997,267115.662,267116.299999997,267132.328,269315.574
Stimulus + Response,canvas.Screen,1_36_1,2021-06-03T01:55:33.469Z,true,4,5,58,-71,2286.6300000000047,response,0,number-7-sd-5.png,21,16,19,24,18,15,12,24,4,4,click @4,7,272538.09999999404,272535.5,270232.204,270235.799999997,270248.87,272548.778
,flow.Sequence,1_36,2021-06-03T01:55:33.469Z,,,5,,,3219.9259999999776,completion,0,number-7-sd-5.png,21,16,19,24,18,15,12,24,4,,,7,272538.5,272535.5,269298.908,269301,269315.574,272548.778
Stimulus + Response,canvas.Screen,1_37_1,2021-06-03T01:55:35.630Z,true,3,15,-64,-27,1097.8639999940642,response,0,number-3-ld-5.png,10,19,30,0,0,0,0,30,3,3,click @3,3,274699.09999999404,274696.59999999404,273582.07,273590.799999997,273598.736,274715.358
,flow.Sequence,1_37,2021-06-03T01:55:35.630Z,,,15,,,2147.8219999940484,completion,0,number-3-ld-5.png,10,19,30,0,0,0,0,30,3,,,3,274699.299999997,274696.59999999404,272532.112,272538.59999999404,272548.778,274715.358
Stimulus + Response,canvas.Screen,1_38_1,2021-06-03T01:55:38.821Z,true,3,15,-12,-55,2171.6819999999716,response,0,number-3-ld-2.png,52,62,72,0,0,0,0,72,3,3,click @3,3,277889.69999999553,277887,275698.652,275704.799999997,275715.318,277898.564
,flow.Sequence,1_38,2021-06-03T01:55:38.821Z,,,15,,,3171.6419999999925,completion,0,number-3-ld-2.png,52,62,72,0,0,0,0,72,3,,,3,277890,277887,274698.692,274699.5,274715.358,277898.564
Stimulus + Response,canvas.Screen,1_39_1,2021-06-03T01:55:41.122Z,true,2,5,-41,62,1118.7739999940386,response,0,number-3-sd-2.png,54,57,51,0,0,0,0,57,2,2,click @2,3,280191.3999999985,280189.09999999404,279053.66,279068.09999999404,279070.326,280203.614
,flow.Sequence,1_39,2021-06-03T01:55:41.123Z,,,5,,,2290.5359999940265,completion,0,number-3-sd-2.png,54,57,51,0,0,0,0,57,2,,,3,280191.69999999553,280189.09999999404,277881.898,277891.19999999553,277898.564,280203.614
Stimulus + Response,canvas.Screen,1_40_1,2021-06-03T01:55:43.543Z,true,5,15,35,37,1439.4579999955022,response,1,graph-5-ld-1.png,27,40,19,33,48,0,0,48,5,5,click @5,5,282612.09999999404,282609.69999999553,281153.576,281166.19999999553,281170.242,282620.184
,flow.Sequence,1_40,2021-06-03T01:55:43.544Z,,,15,,,2406.0859999955283,completion,1,graph-5-ld-1.png,27,40,19,33,48,0,0,48,5,,,5,282612.3999999985,282609.69999999553,280186.948,280191.799999997,280203.614,282620.184
Stimulus + Response,canvas.Screen,1_41_1,2021-06-03T01:55:45.423Z,true,1,15,-90,4,985.2179999955115,response,1,graph-3-ld-4.png,90,70,80,0,0,0,0,90,1,1,click @1,3,284491.3999999985,284488.69999999553,283486.816,283492.299999997,283503.482,284503.442
,flow.Sequence,1_41,2021-06-03T01:55:45.423Z,,,15,,,1868.5159999955213,completion,1,graph-3-ld-4.png,90,70,80,0,0,0,0,90,1,,,3,284491.799999997,284488.69999999553,282603.518,282612.59999999404,282620.184,284503.442
Stimulus + Response,canvas.Screen,1_42_1,2021-06-03T01:55:48.699Z,true,3,5,-9,-44,2244.9319999999716,response,0,number-5-sd-2.png,24,26,31,21,28,0,0,31,3,3,click @3,5,287767.69999999553,287765,285503.402,285510.3999999985,285520.068,287769.978
,flow.Sequence,1_42,2021-06-03T01:55:48.699Z,,,5,,,3261.558000000019,completion,0,number-5-sd-2.png,24,26,31,21,28,0,0,31,3,,,5,287768,287765,284486.776,284491.8999999985,284503.442,287769.978
Stimulus + Response,canvas.Screen,1_43_1,2021-06-03T01:55:52.919Z,true,3,5,-94,21,2915.173999994062,response,0,number-5-sd-4.png,70,68,75,65,72,0,0,75,3,3,click @3,5,291987.59999999404,291985.09999999404,289053.26,289063.8999999985,289069.926,291997.23
,flow.Sequence,1_43,2021-06-03T01:55:52.919Z,,,5,,,4215.121999994037,completion,0,number-5-sd-4.png,70,68,75,65,72,0,0,75,3,,,5,291988,291985.09999999404,287753.312,287768.09999999404,287769.978,291997.23
Stimulus + Response,canvas.Screen,1_44_1,2021-06-03T01:55:55.826Z,true,2,15,82,82,1444.8279999999795,response,0,number-5-ld-5.png,47,75,61,54,68,0,0,75,2,2,click @2,5,294894.19999999553,294892,293430.506,293433,293447.172,294897.114
,flow.Sequence,1_44,2021-06-03T01:55:55.826Z,,,15,,,2894.7700000000186,completion,0,number-5-ld-5.png,47,75,61,54,68,0,0,75,2,,,5,294894.5,294892,291980.564,291988,291997.23,294897.114
Stimulus + Response,canvas.Screen,1_45_1,2021-06-03T01:55:57.594Z,true,3,15,-57,92,779.6919999940437,response,1,graph-3-ld-2.png,52,62,72,0,0,0,0,72,3,3,click @3,3,296662.59999999404,296660.09999999404,295863.742,295868.8999999985,295880.408,296663.71
,flow.Sequence,1_45,2021-06-03T01:55:57.594Z,,,15,,,1762.9859999940381,completion,1,graph-3-ld-2.png,52,62,72,0,0,0,0,72,3,,,3,296662.799999997,296660.09999999404,294880.448,294894.59999999404,294897.114,296663.71
Stimulus + Response,canvas.Screen,1_46_1,2021-06-03T01:56:01.491Z,true,5,5,80,10,2726.7699999940232,response,0,number-5-sd-3.png,81,77,84,79,86,0,0,86,5,5,click @5,5,300559.299999997,300557.09999999404,297813.664,297825.799999997,297830.33,300563.554
,flow.Sequence,1_46,2021-06-03T01:56:01.491Z,,,5,,,3893.3899999940186,completion,0,number-5-sd-3.png,81,77,84,79,86,0,0,86,5,,,5,300559.59999999404,300557.09999999404,296647.044,296663,296663.71,300563.554
Stimulus + Response,canvas.Screen,1_47_1,2021-06-03T01:56:03.408Z,true,3,5,42,57,997.8249999984982,response,1,graph-5-sd-2.png,24,26,31,21,28,0,0,31,3,3,click @3,5,302476.299999997,302474.3999999985,301459.909,301463.69999999553,301476.575,302493.201
,flow.Sequence,1_47,2021-06-03T01:56:03.408Z,,,5,,,1910.8459999985062,completion,1,graph-5-sd-2.png,24,26,31,21,28,0,0,31,3,,,5,302476.59999999404,302474.3999999985,300546.888,300559.69999999553,300563.554,302493.201
Stimulus + Response,canvas.Screen,1_48_1,2021-06-03T01:56:06.920Z,true,6,5,-61,57,2310.512999999977,response,0,number-7-sd-3.png,16,21,24,25,22,28,19,28,6,6,click @6,7,305988.299999997,305987,303659.821,303662.3999999985,303676.487,305993.061
,flow.Sequence,1_48,2021-06-03T01:56:06.920Z,,,5,,,3493.798999999999,completion,0,number-7-sd-3.png,16,21,24,25,22,28,19,28,6,,,7,305988.3999999985,305987,302476.535,302476.799999997,302493.201,305993.061
Stimulus + Response,canvas.Screen,1_49_1,2021-06-03T01:56:09.538Z,true,7,5,45,2,1727.340999995533,response,1,graph-7-sd-1.png,27,34,31,36,33,30,39,39,7,7,click @7,7,308606.5,308603.69999999553,306859.693,306869.69999999553,306876.359,308609.623
,flow.Sequence,1_49,2021-06-03T01:56:09.539Z,,,5,,,2610.6389999955427,completion,1,graph-7-sd-1.png,27,34,31,36,33,30,39,39,7,,,7,308606.69999999553,308603.69999999553,305976.395,305988.59999999404,305993.061,308609.623
Stimulus + Response,canvas.Screen,1_50_1,2021-06-03T01:56:11.784Z,true,1,15,-83,85,1274.7490000000107,response,0,number-3-ld-4.png,90,70,80,0,0,0,0,90,1,1,click @1,3,310852.299999997,310851,309559.585,309572.69999999553,309576.251,310863.773
,flow.Sequence,1_50,2021-06-03T01:56:11.784Z,,,15,,,2241.3769999999786,completion,0,number-3-ld-4.png,90,70,80,0,0,0,0,90,1,,,3,310852.59999999404,310851,308592.957,308606.8999999985,308609.623,310863.773
Stimulus + Response,canvas.Screen,1_51_1,2021-06-03T01:56:13.923Z,true,2,15,37,14,1141.332999998529,response,1,graph-5-ld-2.png,1,28,8,14,20,0,0,28,2,2,click @2,5,312990.69999999553,312988.3999999985,311830.401,311844.09999999404,311847.067,312997.021
,flow.Sequence,1_51,2021-06-03T01:56:13.923Z,,,15,,,2124.6269999985234,completion,1,graph-5-ld-2.png,1,28,8,14,20,0,0,28,2,,,5,312991,312988.3999999985,310847.107,310852.59999999404,310863.773,312997.021
Stimulus + Response,canvas.Screen,1_52_1,2021-06-03T01:56:19.020Z,true,5,5,62,7,4021.554999995511,response,0,number-7-sd-2.png,55,48,52,57,59,50,53,59,5,5,click @5,7,318087.799999997,318085.19999999553,314046.979,314059.69999999553,314063.645,318096.817
,flow.Sequence,1_52,2021-06-03T01:56:19.020Z,,,5,,,5088.178999995522,completion,0,number-7-sd-2.png,55,48,52,57,59,50,53,59,5,,,7,318088,318085.19999999553,312980.355,312991,312997.021,318096.817
Stimulus + Response,canvas.Screen,1_53_1,2021-06-03T01:56:21.095Z,true,2,5,-65,89,980.0929999955115,response,0,number-3-sd-1.png,71,75,68,0,0,0,0,75,2,2,click @2,3,320162.8999999985,320160.19999999553,319163.441,319164.799999997,319180.107,320180.067
,flow.Sequence,1_53,2021-06-03T01:56:21.095Z,,,5,,,2063.3829999955487,completion,0,number-3-sd-1.png,71,75,68,0,0,0,0,75,2,,,3,320163.09999999404,320160.19999999553,318080.151,318088.09999999404,318096.817,320180.067
Stimulus + Response,canvas.Screen,1_54_1,2021-06-03T01:56:23.312Z,true,3,5,-21,-91,1130.4019999970333,response,1,graph-5-sd-4.png,70,68,75,65,72,0,0,75,3,3,click @3,5,322379.3999999985,322376.799999997,321229.732,321239.59999999404,321246.398,322396.352
,flow.Sequence,1_54,2021-06-03T01:56:23.312Z,,,5,,,2196.732999997039,completion,1,graph-5-sd-4.png,70,68,75,65,72,0,0,75,3,,,5,322379.69999999553,322376.799999997,320163.401,320163.19999999553,320180.067,322396.352
Stimulus + Response,canvas.Screen,1_55_1,2021-06-03T01:56:26.801Z,true,1,5,-43,-86,2403.023999999976,response,0,number-3-sd-5.png,83,76,80,0,0,0,0,83,1,1,click @1,3,325868.5,325866,323446.31,323462.59999999404,323462.976,325879.546
,flow.Sequence,1_55,2021-06-03T01:56:26.801Z,,,5,,,3469.6479999999865,completion,0,number-3-sd-5.png,83,76,80,0,0,0,0,83,1,,,3,325868.799999997,325866,322379.686,322379.69999999553,322396.352,325879.546
Stimulus + Response,canvas.Screen,1_56_1,2021-06-03T01:56:29.378Z,true,5,15,95,-91,1747.6199999970268,response,0,number-5-ld-1.png,27,40,19,33,48,0,0,48,5,5,click @5,5,328445.8999999985,328443.799999997,326679.514,326692.59999999404,326696.18,328462.776
,flow.Sequence,1_56,2021-06-03T01:56:29.379Z,,,15,,,2564.253999997047,completion,0,number-5-ld-1.png,27,40,19,33,48,0,0,48,5,,,5,328446.19999999553,328443.799999997,325862.88,325868.8999999985,325879.546,328462.776
Stimulus + Response,canvas.Screen,1_57_1,2021-06-03T01:56:31.320Z,true,2,15,70,40,955.5960000000196,response,0,number-3-ld-3.png,21,43,32,0,0,0,0,43,2,2,click @2,3,330387.19999999553,330385,329412.738,329413,329429.404,330396.032
,flow.Sequence,1_57,2021-06-03T01:56:31.320Z,,,15,,,1922.2239999999874,completion,0,number-3-ld-3.png,21,43,32,0,0,0,0,43,2,,,3,330387.5,330385,328446.11,328446.19999999553,328462.776,330396.032
Stimulus + Response,canvas.Screen,1_58_1,2021-06-03T01:56:33.733Z,true,6,5,-9,92,1314.3119999970077,response,1,graph-7-sd-3.png,16,21,24,25,22,28,19,28,6,6,click @6,7,332800.3999999985,332797.799999997,331466.822,331472.09999999404,331483.488,332816.768
,flow.Sequence,1_58,2021-06-03T01:56:33.733Z,,,5,,,2401.7679999970132,completion,1,graph-7-sd-3.png,16,21,24,25,22,28,19,28,6,,,7,332800.69999999553,332797.799999997,330379.366,330387.59999999404,330396.032,332816.768
Stimulus + Response,canvas.Screen,1_59_1,2021-06-03T01:56:35.917Z,true,3,15,-53,60,1315.8659999940428,response,0,number-3-ld-1.png,52,43,63,0,0,0,0,63,3,3,click @3,3,334984.799999997,334982.59999999404,333650.068,333657,333666.734,335000.014
,flow.Sequence,1_59,2021-06-03T01:56:35.918Z,,,15,,,2165.8319999940577,completion,0,number-3-ld-1.png,52,43,63,0,0,0,0,63,3,,,3,334985.09999999404,334982.59999999404,332800.102,332800.8999999985,332816.768,335000.014
繰り返し（実験パラメータ）,flow.Loop,1,2021-06-03T01:56:35.918Z,,,,,,181404.06099999405,completion,,,,,,,,,,,,,,,334985.19999999553,334982.59999999404,153561.873,153578.3999999985,153578.539,335000.014