sender,sender_type,sender_id,timestamp,correct,correctResponse,deviation,disp_x,disp_y,duration,ended_on,graphFlag,img,item1,item2,item3,item4,item5,item6,item7,max,max_index,response,response_action,size,time_commit,time_end,time_render,time_run,time_show,time_switch
Stimulus + Response,canvas.Screen,1_0_1,2021-06-03T01:54:03.450Z,false,2,15,-63,12,1755.482000000491,response,0,number-5-ld-5.png,47,75,61,54,68,0,0,75,2,5,click @5,5,40167.51000000113,40163.21500000049,38391.05,38392.620000000534,38407.733,40176.131
,flow.Sequence,1_0,2021-06-03T01:54:03.451Z,,,15,,,3155.0370000004914,completion,0,number-5-ld-5.png,47,75,61,54,68,0,0,75,2,,,5,40168.595000001005,40163.21500000049,36991.495,37002.07000000046,37008.178,40176.131
Stimulus + Response,canvas.Screen,1_1_1,2021-06-03T01:54:05.195Z,true,4,15,-40,-41,915.6320000011183,response,1,graph-5-ld-3.png,37,28,43,58,50,0,0,58,4,4,click @4,5,41912.73999999976,41909.23000000112,40976.915,40992.49500000042,40993.598,41927.846
,flow.Sequence,1_1,2021-06-03T01:54:05.196Z,,,15,,,1733.0990000011152,completion,1,graph-5-ld-3.png,37,28,43,58,50,0,0,58,4,,,5,41913.52999999981,41909.23000000112,40159.448,40168.85000000002,40176.131,41927.846
Stimulus + Response,canvas.Screen,1_2_1,2021-06-03T01:54:07.078Z,true,3,5,-48,-64,880.1369999996678,response,1,graph-5-sd-2.png,24,26,31,21,28,0,0,31,3,3,click @3,5,43795.79999999987,43792.279999999664,42895.46,42906.175000000076,42912.143,43813.025
,flow.Sequence,1_2,2021-06-03T01:54:07.078Z,,,5,,,1864.4339999996664,completion,1,graph-5-sd-2.png,24,26,31,21,28,0,0,31,3,,,5,43796.299999999974,43792.279999999664,41911.163,41914.020000000164,41927.846,43813.025
Stimulus + Response,canvas.Screen,1_3_1,2021-06-03T01:54:10.701Z,true,1,5,-99,49,2602.0750000008775,response,0,number-5-sd-5.png,70,63,67,65,60,0,0,70,1,1,click @1,5,47419.48500000035,47416.080000000875,44797.322,44812.965000000986,44814.005,47433.236
,flow.Sequence,1_3,2021-06-03T01:54:10.702Z,,,5,,,3603.0550000008734,completion,0,number-5-sd-5.png,70,63,67,65,60,0,0,70,1,,,5,47420.1350000003,47416.080000000875,43796.342,43796.715000000404,43813.025,47433.236
Stimulus + Response,canvas.Screen,1_4_1,2021-06-03T01:54:12.898Z,true,5,5,-78,56,1146.2130000011166,response,1,graph-7-sd-2.png,55,48,52,57,59,50,53,59,5,5,click @5,7,49616.03000000105,49613.79500000112,48450.899,48462.24000000075,48467.582,49623.613
,flow.Sequence,1_4,2021-06-03T01:54:12.898Z,,,5,,,2180.5590000011216,completion,1,graph-7-sd-2.png,55,48,52,57,59,50,53,59,5,,,7,49616.33500000062,49613.79500000112,47416.553,47420.41000000063,47433.236,49623.613
Stimulus + Response,canvas.Screen,1_5_1,2021-06-03T01:54:17.316Z,false,4,5,62,85,3422.7099999995407,response,0,number-7-sd-5.png,21,16,19,24,18,15,12,24,4,1,click @1,7,54034.04500000033,54030.619999999544,50591.227,50600.570000000516,50607.91,54044.608
,flow.Sequence,1_5,2021-06-03T01:54:17.316Z,,,5,,,4407.006999999547,completion,0,number-7-sd-5.png,21,16,19,24,18,15,12,24,4,,,7,54034.654999999475,54030.619999999544,49606.93,49616.49000000034,49623.613,54044.608
Stimulus + Response,canvas.Screen,1_6_1,2021-06-03T01:54:20.511Z,true,5,15,-68,28,2247.154000000315,response,0,number-5-ld-1.png,27,40,19,33,48,0,0,48,5,5,click @5,5,57229.6750000005,57226.010000000315,54962.173,54970.46000000046,54978.856,57247.744
,flow.Sequence,1_6,2021-06-03T01:54:20.512Z,,,15,,,3181.4020000003147,completion,0,number-5-ld-1.png,27,40,19,33,48,0,0,48,5,,,5,57230.30000000108,57226.010000000315,54027.925,54034.91500000018,54044.608,57247.744
Stimulus + Response,canvas.Screen,1_7_1,2021-06-03T01:54:23.870Z,true,1,15,89,64,2353.0390000007465,response,0,number-5-ld-4.png,44,36,15,30,24,0,0,44,1,1,click @1,5,60588.56999999989,60585.080000000744,58215.358,58216.25500000118,58232.041,60601.027
,flow.Sequence,1_7,2021-06-03T01:54:23.871Z,,,15,,,3337.336000000745,completion,0,number-5-ld-4.png,44,36,15,30,24,0,0,44,1,,,5,60589.030000001,60585.080000000744,57231.061,57230.555000000095,57247.744,60601.027
Stimulus + Response,canvas.Screen,1_8_1,2021-06-03T01:54:25.678Z,true,2,5,-51,39,886.7470000005123,response,1,graph-3-sd-2.png,54,57,51,0,0,0,0,57,2,2,click @2,3,62396.64000000084,62393.12500000051,61489.695,61492.47000000105,61506.378,62407.26
,flow.Sequence,1_8,2021-06-03T01:54:25.679Z,,,5,,,1792.0980000005075,completion,1,graph-3-sd-2.png,54,57,51,0,0,0,0,57,2,,,3,62397.249999999985,62393.12500000051,60584.344,60589.26500000052,60601.027,62407.26
Stimulus + Response,canvas.Screen,1_9_1,2021-06-03T01:54:27.998Z,true,1,15,-61,-89,1237.5430000010747,response,0,number-3-ld-4.png,90,70,80,0,0,0,0,90,1,1,click @1,3,64715.830000001006,64712.515000001076,63458.289,63470.30000000086,63474.972,64726.197
,flow.Sequence,1_9,2021-06-03T01:54:27.998Z,,,15,,,2305.255000001074,completion,0,number-3-ld-4.png,90,70,80,0,0,0,0,90,1,,,3,64716.29500000017,64712.515000001076,62390.577,62397.50500000082,62407.26,64726.197
Stimulus + Response,canvas.Screen,1_10_1,2021-06-03T01:54:30.451Z,true,3,15,-1,20,1137.9890000001615,response,1,graph-3-ld-5.png,10,19,30,0,0,0,0,30,3,3,click @3,3,67168.94499999944,67165.46000000017,66010.788,66016.01000000119,66027.471,67178.598
,flow.Sequence,1_10,2021-06-03T01:54:30.451Z,,,15,,,2439.2630000001664,completion,1,graph-3-ld-5.png,10,19,30,0,0,0,0,30,3,,,3,67169.55000000053,67165.46000000017,64709.514,64716.52999999969,64726.197,67178.598
Stimulus + Response,canvas.Screen,1_11_1,2021-06-03T01:54:33.228Z,true,2,15,90,34,1629.6930000005377,response,0,number-5-ld-2.png,1,28,8,14,20,0,0,28,2,2,click @2,5,69946.37999999941,69942.73500000054,68296.359,68298.5349999999,68313.042,69947.976
,flow.Sequence,1_11,2021-06-03T01:54:33.229Z,,,15,,,2764.137000000541,completion,0,number-5-ld-2.png,1,28,8,14,20,0,0,28,2,,,5,69946.99000000037,69942.73500000054,67161.915,67169.81500000111,67178.598,69947.976
Stimulus + Response,canvas.Screen,1_12_1,2021-06-03T01:54:36.012Z,true,1,15,75,-31,1739.8040000003239,response,0,number-7-ld-3.png,90,68,62,83,77,73,56,90,1,1,click @1,7,72730.12500000004,72727.81000000032,70971.323,70973.13000000031,70988.006,72739.721
,flow.Sequence,1_12,2021-06-03T01:54:36.012Z,,,15,,,2779.8340000003227,completion,0,number-7-ld-3.png,90,68,62,83,77,73,56,90,1,,,7,72730.41000000012,72727.81000000032,69931.293,69947.25000000108,69947.976,72739.721
Stimulus + Response,canvas.Screen,1_13_1,2021-06-03T01:54:38.292Z,true,4,15,-3,85,1166.2410000004165,response,1,graph-7-ld-2.png,53,58,35,71,63,48,42,71,4,4,click @4,7,75010.08999999976,75007.04000000042,73824.116,73831.32000000114,73840.799,75025.292
,flow.Sequence,1_13,2021-06-03T01:54:38.292Z,,,15,,,2267.3190000004106,completion,1,graph-7-ld-2.png,53,58,35,71,63,48,42,71,4,,,7,75010.7050000006,75007.04000000042,72723.038,72730.55000000022,72739.721,75025.292
Stimulus + Response,canvas.Screen,1_14_1,2021-06-03T01:54:40.374Z,true,2,15,62,32,1045.6999999995605,response,1,graph-5-ld-5.png,47,75,61,54,68,0,0,75,2,2,click @2,5,77092.14500000053,77088.65499999956,76026.272,76033.8499999998,76042.955,77093.984
,flow.Sequence,1_14,2021-06-03T01:54:40.374Z,,,15,,,2063.362999999561,completion,1,graph-5-ld-5.png,47,75,61,54,68,0,0,75,2,,,5,77092.7499999998,77088.65499999956,75008.609,75010.95999999961,75025.292,77093.984
Stimulus + Response,canvas.Screen,1_15_1,2021-06-03T01:54:42.555Z,true,3,5,30,50,1108.2340000003896,response,1,graph-3-sd-4.png,15,11,18,0,0,0,0,18,3,3,click @3,3,79273.00500000092,79269.93000000039,78145.013,78149.13499999966,78161.696,79279.457
,flow.Sequence,1_15,2021-06-03T01:54:42.555Z,,,5,,,2175.946000000389,completion,1,graph-3-sd-4.png,15,11,18,0,0,0,0,18,3,,,3,79273.44000000085,79269.93000000039,77077.301,77093.00500000063,77093.984,79279.457
Stimulus + Response,canvas.Screen,1_16_1,2021-06-03T01:54:44.951Z,false,3,15,64,-70,1519.327000000776,response,0,number-3-ld-5.png,10,19,30,0,0,0,0,30,3,2,click @2,3,81669.6150000007,81666.30000000077,80130.29,80137.17499999984,80146.973,81686.618
,flow.Sequence,1_16,2021-06-03T01:54:44.952Z,,,15,,,2386.8430000007793,completion,0,number-3-ld-5.png,10,19,30,0,0,0,0,30,3,,,3,81670.21000000022,81666.30000000077,79262.774,79273.68000000024,79279.457,81686.618
Stimulus + Response,canvas.Screen,1_17_1,2021-06-03T01:54:47.101Z,true,1,5,42,69,944.6240000001271,response,1,graph-3-sd-5.png,83,76,80,0,0,0,0,83,1,1,click @1,3,83819.32000000052,83815.73500000013,82854.428,82866.25000000095,82871.111,83822.042
,flow.Sequence,1_17,2021-06-03T01:54:47.101Z,,,5,,,2129.1170000001293,completion,1,graph-3-sd-5.png,83,76,80,0,0,0,0,83,1,,,3,83819.93499999953,83815.73500000013,81669.935,81670.46000000119,81686.618,83822.042
Stimulus + Response,canvas.Screen,1_18_1,2021-06-03T01:54:49.328Z,true,4,5,16,76,1236.276000000289,response,1,graph-5-sd-1.png,48,43,46,53,51,0,0,53,4,4,click @4,5,86046.1350000005,86042.6150000003,84789.656,84803.99500000021,84806.339,86057.564
,flow.Sequence,1_18,2021-06-03T01:54:49.328Z,,,5,,,2220.573000000295,completion,1,graph-5-sd-1.png,48,43,46,53,51,0,0,53,4,,,5,86046.57000000043,86042.6150000003,83805.359,83820.19500000024,83822.042,86057.564
Stimulus + Response,canvas.Screen,1_19_1,2021-06-03T01:54:51.420Z,true,2,5,9,-60,1026.8420000001497,response,1,graph-3-sd-3.png,21,28,25,0,0,0,0,28,2,2,click @2,3,88138.825,88135.43500000014,87091.91,87096.98000000026,87108.593,88142.939
,flow.Sequence,1_19,2021-06-03T01:54:51.421Z,,,5,,,2077.8710000001447,completion,1,graph-3-sd-3.png,21,28,25,0,0,0,0,28,2,,,3,88139.43000000108,88135.43500000014,86040.881,86046.80000000008,86057.564,88142.939
Stimulus + Response,canvas.Screen,1_20_1,2021-06-03T01:54:55.199Z,true,6,15,21,97,2753.2030000001396,response,0,number-7-ld-5.png,43,38,27,48,19,56,33,56,6,6,click @6,7,91917.40000000027,91913.80500000014,89143.919,89147.10000000014,89160.602,91929.98
,flow.Sequence,1_20,2021-06-03T01:54:55.199Z,,,15,,,3770.86600000014,completion,0,number-7-ld-5.png,43,38,27,48,19,56,33,56,6,,,7,91918.00999999941,91913.80500000014,88126.256,88139.69499999985,88142.939,91929.98
Stimulus + Response,canvas.Screen,1_21_1,2021-06-03T01:54:57.482Z,true,2,5,-19,-50,1466.2409999999945,response,0,number-3-sd-3.png,21,28,25,0,0,0,0,28,2,2,click @2,3,94200.3050000003,94197.00499999999,92714.081,92714.45500000118,92730.764,94202.017
,flow.Sequence,1_21,2021-06-03T01:54:57.482Z,,,5,,,2267.024999999994,completion,0,number-3-sd-3.png,21,28,25,0,0,0,0,28,2,,,3,94200.74999999997,94197.00499999999,91913.297,91918.26500000025,91929.98,94202.017
Stimulus + Response,canvas.Screen,1_22_1,2021-06-03T01:54:59.322Z,true,2,5,-65,-36,901.0250000002125,response,1,graph-3-sd-1.png,71,75,68,0,0,0,0,75,2,2,click @2,3,96040.91499999959,96037.29000000021,95119.582,95128.54499999958,95136.265,96053.83
,flow.Sequence,1_22,2021-06-03T01:54:59.323Z,,,5,,,1835.2730000002048,completion,1,graph-3-sd-1.png,71,75,68,0,0,0,0,75,2,,,3,96041.5350000003,96037.29000000021,94185.334,94200.98499999949,94202.017,96053.83
Stimulus + Response,canvas.Screen,1_23_1,2021-06-03T01:55:02.156Z,true,7,5,88,53,1866.3990000006015,response,1,graph-7-sd-4.png,33,37,36,31,34,29,39,39,7,7,click @7,7,98874.6200000005,98871.1600000006,96988.078,97001.5999999996,97004.761,98889.94
,flow.Sequence,1_23,2021-06-03T01:55:02.157Z,,,5,,,2817.3300000005984,completion,1,graph-7-sd-4.png,33,37,36,31,34,29,39,39,7,,,7,98875.23499999952,98871.1600000006,96037.147,96041.80000000088,96053.83,98889.94
Stimulus + Response,canvas.Screen,1_24_1,2021-06-03T01:55:04.039Z,true,3,15,-50,-13,996.6689999994705,response,1,graph-3-ld-2.png,52,62,72,0,0,0,0,72,3,3,click @3,3,100757.26500000019,100754.12499999948,99740.773,99746.4400000008,99757.456,100775.119
,flow.Sequence,1_24,2021-06-03T01:55:04.039Z,,,15,,,1864.1849999994738,completion,1,graph-3-ld-2.png,52,62,72,0,0,0,0,72,3,,,3,100757.70999999986,100754.12499999948,98873.257,98875.49000000035,98889.94,100775.119
Stimulus + Response,canvas.Screen,1_25_1,2021-06-03T01:55:07.890Z,true,6,15,66,-3,2895.7580000000453,response,0,number-7-ld-1.png,42,38,52,33,26,60,47,60,6,6,click @6,7,104608.54500000096,104605.12500000004,101692.684,101692.26999999955,101709.367,104612.209
,flow.Sequence,1_25,2021-06-03T01:55:07.890Z,,,15,,,3830.0060000000376,completion,0,number-7-ld-1.png,42,38,52,33,26,60,47,60,6,,,7,104609.16499999985,104605.12500000004,100758.436,100757.95000000107,100775.119,104612.209
Stimulus + Response,canvas.Screen,1_26_1,2021-06-03T01:55:09.730Z,true,5,15,-43,19,999.1459999996878,response,1,graph-5-ld-1.png,27,40,19,33,48,0,0,48,5,5,click @5,5,106449.02000000002,106445.50499999968,105429.676,105445.71999999971,105446.359,106466.572
,flow.Sequence,1_26,2021-06-03T01:55:09.731Z,,,15,,,1833.295999999682,completion,1,graph-5-ld-1.png,27,40,19,33,48,0,0,48,5,,,5,106449.63500000085,106445.50499999968,104595.526,104609.41500000081,104612.209,106466.572
Stimulus + Response,canvas.Screen,1_27_1,2021-06-03T01:55:12.709Z,true,3,15,-99,-8,1973.8710000003775,response,0,number-3-ld-1.png,52,43,63,0,0,0,0,63,3,3,click @3,3,109428.09500000112,109424.74000000038,107434.186,107440.0399999995,107450.869,109436.146
,flow.Sequence,1_27,2021-06-03T01:55:12.710Z,,,15,,,2958.1680000003835,completion,0,number-3-ld-1.png,52,43,63,0,0,0,0,63,3,,,3,109428.51999999948,109424.74000000038,106449.889,106449.885,106466.572,109436.146
Stimulus + Response,canvas.Screen,1_28_1,2021-06-03T01:55:14.581Z,true,2,15,62,-61,908.8629999999685,response,1,graph-5-ld-2.png,1,28,8,14,20,0,0,28,2,2,click @2,5,111299.37000000064,111295.93999999997,110370.394,110372.31500000053,110387.077,111304.642
,flow.Sequence,1_28,2021-06-03T01:55:14.581Z,,,15,,,1859.7939999999799,completion,1,graph-5-ld-2.png,1,28,8,14,20,0,0,28,2,,,5,111299.96500000016,111295.93999999997,109419.463,109428.75000000095,109436.146,111304.642
Stimulus + Response,canvas.Screen,1_29_1,2021-06-03T01:55:16.841Z,true,3,5,-14,-66,1484.1600000003964,response,0,number-3-sd-4.png,15,11,18,0,0,0,0,18,3,3,click @3,3,113560.00500000118,113556.2200000004,112055.377,112059.38500000047,112072.06,113573.53
,flow.Sequence,1_29,2021-06-03T01:55:16.842Z,,,5,,,2251.578000000387,completion,0,number-3-sd-4.png,15,11,18,0,0,0,0,18,3,,,3,113560.59500000083,113556.2200000004,111287.959,111300.22500000086,111304.642,113573.53
Stimulus + Response,canvas.Screen,1_30_1,2021-06-03T01:55:18.772Z,true,1,15,-32,-35,996.5100000002567,response,1,graph-5-ld-4.png,44,36,15,30,24,0,0,44,1,1,click @1,5,115490.80499999945,115487.60500000026,114474.412,114479.91499999989,114491.095,115508.758
,flow.Sequence,1_30,2021-06-03T01:55:18.772Z,,,15,,,1914.075000000259,completion,1,graph-5-ld-4.png,44,36,15,30,24,0,0,44,1,,,5,115491.22999999963,115487.60500000026,113556.847,113560.85499999972,113573.53,115508.758
Stimulus + Response,canvas.Screen,1_31_1,2021-06-03T01:55:21.081Z,true,1,5,23,-8,1153.612999999692,response,1,graph-5-sd-5.png,70,63,67,65,60,0,0,70,1,1,click @1,5,117800.06499999945,117796.8149999997,116626.519,116627.52499999988,116643.202,117815.879
,flow.Sequence,1_31,2021-06-03T01:55:21.082Z,,,5,,,2288.056999999695,completion,1,graph-5-sd-5.png,70,63,67,65,60,0,0,70,1,,,5,117800.66500000066,117796.8149999997,115492.075,115491.46500000097,115508.758,117815.879
Stimulus + Response,canvas.Screen,1_32_1,2021-06-03T01:55:24.551Z,true,3,5,29,68,2416.525000000678,response,0,number-5-sd-4.png,70,68,75,65,72,0,0,75,3,3,click @3,5,121270.28000000064,121266.75000000068,118833.542,118841.16499999982,118850.225,121285.943
,flow.Sequence,1_32,2021-06-03T01:55:24.552Z,,,5,,,3450.871000000683,completion,0,number-5-sd-4.png,70,68,75,65,72,0,0,75,3,,,5,121270.85500000067,121266.75000000068,117799.196,117800.9149999998,117815.879,121285.943
Stimulus + Response,canvas.Screen,1_33_1,2021-06-03T01:55:26.983Z,true,6,5,-62,-51,1344.9650000010297,response,1,graph-7-sd-3.png,16,21,24,25,22,28,19,28,6,6,click @6,7,123701.84999999947,123698.62000000103,122336.972,122344.46000000025,122353.655,123704.978
,flow.Sequence,1_33,2021-06-03T01:55:26.983Z,,,5,,,2412.6770000010292,completion,1,graph-7-sd-3.png,16,21,24,25,22,28,19,28,6,,,7,123702.2649999999,123698.62000000103,121269.26,121271.17499999986,121285.943,123704.978
Stimulus + Response,canvas.Screen,1_34_1,2021-06-03T01:55:29.831Z,true,4,15,58,95,1907.5789999999542,response,0,number-5-ld-3.png,37,28,43,58,50,0,0,58,4,4,click @4,5,126550.04000000008,126546.80499999995,124622.543,124638.17999999992,124639.226,126557.771
,flow.Sequence,1_34,2021-06-03T01:55:29.832Z,,,15,,,2841.8269999999466,completion,0,number-5-ld-3.png,37,28,43,58,50,0,0,58,4,,,5,126550.64500000117,126546.80499999995,123688.295,123702.49499999954,123704.978,126557.771
Stimulus + Response,canvas.Screen,1_35_1,2021-06-03T01:55:32.974Z,true,5,5,-65,12,2313.8970000005356,response,0,number-5-sd-3.png,81,77,84,79,86,0,0,86,5,5,click @5,5,129692.59000000056,129689.13500000053,127358.555,127358.72999999992,127375.238,129698.961
,flow.Sequence,1_35,2021-06-03T01:55:32.974Z,,,5,,,3131.36400000054,completion,0,number-5-sd-3.png,81,77,84,79,86,0,0,86,5,,,5,129693.18999999996,129689.13500000053,126541.088,126550.89500000031,126557.771,129698.961
Stimulus + Response,canvas.Screen,1_36_1,2021-06-03T01:55:35.363Z,true,2,5,-56,-30,1646.01200000089,response,0,number-3-sd-2.png,54,57,51,0,0,0,0,57,2,2,click @2,3,132082.2100000005,132079.0250000009,130416.33,130417.04000000027,130433.013,132084.63
,flow.Sequence,1_36,2021-06-03T01:55:35.364Z,,,5,,,2380.0640000009007,completion,0,number-3-sd-2.png,54,57,51,0,0,0,0,57,2,,,3,132082.65000000029,132079.0250000009,129682.278,129693.4450000008,129698.961,132084.63
Stimulus + Response,canvas.Screen,1_37_1,2021-06-03T01:55:37.638Z,true,3,15,-90,50,1468.8310000004712,response,0,number-3-ld-2.png,52,62,72,0,0,0,0,72,3,3,click @3,3,134357.56500000024,134354.24500000046,132868.731,132881.6600000009,132885.414,134370.201
,flow.Sequence,1_37,2021-06-03T01:55:37.639Z,,,15,,,2269.6150000004563,completion,0,number-3-ld-2.png,52,62,72,0,0,0,0,72,3,,,3,134358.14500000014,134354.24500000046,132067.947,132082.87999999995,132084.63,134370.201
Stimulus + Response,canvas.Screen,1_38_1,2021-06-03T01:55:39.116Z,true,4,5,40,-14,844.2180000008666,response,1,graph-7-sd-5.png,21,16,19,24,18,15,12,24,4,4,click @4,7,135835.16000000056,135831.69000000088,134970.789,134979.07500000112,134987.472,135838.305
,flow.Sequence,1_38,2021-06-03T01:55:39.117Z,,,5,,,1461.4890000008745,completion,1,graph-7-sd-5.png,21,16,19,24,18,15,12,24,4,,,7,135835.6050000002,135831.69000000088,134353.518,134358.38999999943,134370.201,135838.305
Stimulus + Response,canvas.Screen,1_39_1,2021-06-03T01:55:40.892Z,true,7,5,-41,-32,1102.26500000112,response,1,graph-7-sd-1.png,27,34,31,36,33,30,39,39,7,7,click @7,7,137611.56500000105,137607.89000000112,136488.942,136488.61500000022,136505.625,137623.386
,flow.Sequence,1_39,2021-06-03T01:55:40.893Z,,,5,,,1769.585000001127,completion,1,graph-7-sd-1.png,27,34,31,36,33,30,39,39,7,,,7,137612.12999999954,137607.89000000112,135821.622,135835.83,135838.305,137623.386
Stimulus + Response,canvas.Screen,1_40_1,2021-06-03T01:55:43.001Z,true,6,15,14,90,1125.7399999998452,response,1,graph-7-ld-1.png,42,38,52,33,26,60,47,60,6,6,click @6,7,139720.18000000025,139716.73999999985,138574.317,138587.24500000064,138591,139730.162
,flow.Sequence,1_40,2021-06-03T01:55:43.002Z,,,15,,,2093.3539999998466,completion,1,graph-7-ld-1.png,42,38,52,33,26,60,47,60,6,,,7,139720.7849999995,139716.73999999985,137606.703,137612.37000000075,137623.386,139730.162
Stimulus + Response,canvas.Screen,1_41_1,2021-06-03T01:55:45.964Z,true,7,5,9,-57,2231.9690000001865,response,0,number-7-sd-1.png,27,34,31,36,33,30,39,39,7,7,click @7,7,142682.8399999995,142679.50000000017,140430.848,140446.21499999994,140447.531,142699.736
,flow.Sequence,1_41,2021-06-03T01:55:45.964Z,,,5,,,2949.3380000001634,completion,0,number-7-sd-1.png,27,34,31,36,33,30,39,39,7,,,7,142683.2749999994,142679.50000000017,139713.479,139721.0500000001,139730.162,142699.736
Stimulus + Response,canvas.Screen,1_42_1,2021-06-03T01:55:48.087Z,true,2,15,63,17,1235.8430000011285,response,0,number-3-ld-3.png,21,43,32,0,0,0,0,43,2,2,click @2,3,144806.55000000115,144803.09500000114,143550.569,143554.75000000116,143567.252,144818.477
,flow.Sequence,1_42,2021-06-03T01:55:48.088Z,,,15,,,2103.359000001132,completion,0,number-3-ld-3.png,21,43,32,0,0,0,0,43,2,,,3,144807.15500000044,144803.09500000114,142683.053,142683.50500000088,142699.736,144818.477
Stimulus + Response,canvas.Screen,1_43_1,2021-06-03T01:55:51.187Z,true,1,5,83,45,2250.638000000821,response,0,number-3-sd-5.png,83,76,80,0,0,0,0,83,1,1,click @1,3,147906.66000000056,147903.26500000083,145635.944,145638.07000000088,145652.627,147921.515
,flow.Sequence,1_43,2021-06-03T01:55:51.188Z,,,5,,,3084.7880000008154,completion,0,number-3-sd-5.png,83,76,80,0,0,0,0,83,1,,,3,147907.2500000002,147903.26500000083,144801.794,144807.40499999956,144818.477,147921.515
Stimulus + Response,canvas.Screen,1_44_1,2021-06-03T01:55:52.962Z,true,3,5,89,91,1105.5430000002962,response,1,graph-5-sd-4.png,70,68,75,65,72,0,0,75,3,3,click @3,5,149681.125000001,149677.6950000003,148555.469,148561.06999999975,148572.152,149695.325
,flow.Sequence,1_44,2021-06-03T01:55:52.962Z,,,5,,,1756.180000000284,completion,1,graph-5-sd-4.png,70,68,75,65,72,0,0,75,3,,,5,149681.55000000115,149677.6950000003,147904.832,147907.50000000116,147921.515,149695.325
Stimulus + Response,canvas.Screen,1_45_1,2021-06-03T01:55:54.730Z,true,3,15,61,-12,965.9140000001935,response,1,graph-3-ld-1.png,52,43,63,0,0,0,0,63,3,3,click @3,3,151448.98500000092,151445.3400000002,150462.743,150473.7100000002,150479.426,151463.723
,flow.Sequence,1_45,2021-06-03T01:55:54.730Z,,,15,,,1750.0150000001886,completion,1,graph-3-ld-1.png,52,43,63,0,0,0,0,63,3,,,3,151449.55500000104,151445.3400000002,149678.642,149681.78000000078,149695.325,151463.723
Stimulus + Response,canvas.Screen,1_46_1,2021-06-03T01:55:57.281Z,true,3,5,-8,6,1732.2230000007257,response,0,number-5-sd-2.png,24,26,31,21,28,0,0,31,3,3,click @3,5,154000.17000000115,153996.73000000074,152247.824,152255.57000000117,152264.507,154016.222
,flow.Sequence,1_46,2021-06-03T01:55:57.281Z,,,5,,,2533.00700000074,completion,0,number-5-sd-2.png,24,26,31,21,28,0,0,31,3,,,5,154000.78500000018,153996.73000000074,151447.04,151449.7850000007,151463.723,154016.222
Stimulus + Response,canvas.Screen,1_47_1,2021-06-03T01:56:00.461Z,true,6,5,-70,44,2393.5699999998324,response,0,number-7-sd-3.png,16,21,24,25,22,28,19,28,6,6,click @6,7,157180.64000000048,157177.20999999985,154766.957,154768.32000000105,154783.64,157185.992
,flow.Sequence,1_47,2021-06-03T01:56:00.462Z,,,5,,,3160.9879999998375,completion,0,number-7-sd-3.png,16,21,24,25,22,28,19,28,6,,,7,157181.10999999952,157177.20999999985,153999.539,154001.00500000006,154016.222,157185.992
Stimulus + Response,canvas.Screen,1_48_1,2021-06-03T01:56:03.503Z,true,4,5,-44,83,2399.30400000012,response,0,number-5-sd-1.png,48,43,46,53,51,0,0,53,4,4,click @4,5,160222.62500000035,160219.25000000012,157803.263,157810.27499999982,157819.946,160238.981
,flow.Sequence,1_48,2021-06-03T01:56:03.504Z,,,5,,,3033.258000000118,completion,0,number-5-sd-1.png,48,43,46,53,51,0,0,53,4,,,5,160223.24500000104,160219.25000000012,157169.309,157181.35000000073,157185.992,160238.981
Stimulus + Response,canvas.Screen,1_49_1,2021-06-03T01:56:05.612Z,true,1,15,-44,42,1338.404000000126,response,1,graph-7-ld-3.png,90,68,62,83,77,73,56,90,1,1,click @1,7,162331.46500000113,162328.1200000001,160973.033,160984.64500000046,160989.716,162343.974
,flow.Sequence,1_49,2021-06-03T01:56:05.613Z,,,15,,,2089.139000000112,completion,1,graph-7-ld-3.png,90,68,62,83,77,73,56,90,1,,,7,162332.04000000114,162328.1200000001,160222.298,160223.50000000006,160238.981,162343.974
Stimulus + Response,canvas.Screen,1_50_1,2021-06-03T01:56:07.705Z,true,6,15,-21,-12,1025.6619999996328,response,1,graph-7-ld-5.png,43,38,27,48,19,56,33,56,6,6,click @6,7,164424.09000000043,164420.66499999963,163378.32,163388.57500000086,163395.003,164429.349
,flow.Sequence,1_50,2021-06-03T01:56:07.705Z,,,15,,,2076.6909999996424,completion,1,graph-7-ld-5.png,43,38,27,48,19,56,33,56,6,,,7,164424.4950000011,164420.66499999963,162327.291,162332.27500000066,162343.974,164429.349
Stimulus + Response,canvas.Screen,1_51_1,2021-06-03T01:56:09.640Z,true,1,15,13,-22,859.3140000012354,response,1,graph-3-ld-4.png,90,70,80,0,0,0,0,90,1,1,click @1,3,166359.6749999997,166356.37500000122,165480.378,165489.5400000005,165497.061,166364.577
,flow.Sequence,1_51,2021-06-03T01:56:09.641Z,,,15,,,1927.026000001235,completion,1,graph-3-ld-4.png,90,70,80,0,0,0,0,90,1,,,3,166360.3750000002,166356.37500000122,164412.666,164424.71500000102,164429.349,166364.577
Stimulus + Response,canvas.Screen,1_52_1,2021-06-03T01:56:12.048Z,true,2,5,-72,-29,1331.5360000000219,response,0,number-3-sd-1.png,71,75,68,0,0,0,0,75,2,2,click @2,3,168767.29999999952,168763.825,167415.606,167427.11000000054,167432.289,168783.612
,flow.Sequence,1_52,2021-06-03T01:56:12.048Z,,,5,,,2399.2480000000214,completion,0,number-3-sd-1.png,71,75,68,0,0,0,0,75,2,,,3,168767.86999999968,168763.825,166347.894,166360.61999999947,166364.577,168783.612
Stimulus + Response,canvas.Screen,1_53_1,2021-06-03T01:56:15.485Z,false,4,15,94,-96,2600.291000000696,response,0,number-7-ld-2.png,53,58,35,71,63,48,42,71,4,5,click @5,7,172204.6850000006,172201.3700000007,169584.396,169598.5550000005,169601.079,172220.31
,flow.Sequence,1_53,2021-06-03T01:56:15.486Z,,,15,,,3417.7580000007,completion,0,number-7-ld-2.png,53,58,35,71,63,48,42,71,4,,,7,172205.09500000117,172201.3700000007,168766.929,168768.10500000103,168783.612,172220.31
Stimulus + Response,canvas.Screen,1_54_1,2021-06-03T01:56:17.545Z,true,1,15,-49,52,1257.2290000006324,response,1,graph-7-ld-4.png,61,27,43,39,34,49,54,61,1,1,click @1,7,174264.96500000032,174261.64000000063,172987.728,172987.59000000064,173004.411,174276.13
,flow.Sequence,1_54,2021-06-03T01:56:17.546Z,,,15,,,2041.3300000006275,completion,1,graph-7-ld-4.png,61,27,43,39,34,49,54,61,1,,,7,174265.52000000083,174261.64000000063,172203.627,172205.3100000012,172220.31,174276.13
Stimulus + Response,canvas.Screen,1_55_1,2021-06-03T01:56:19.467Z,true,2,15,-75,22,922.97799999977,response,1,graph-3-ld-3.png,21,43,32,0,0,0,0,43,2,2,click @2,3,176186.97000000067,176183.40499999977,175243.744,175248.3800000009,175260.427,176194.675
,flow.Sequence,1_55,2021-06-03T01:56:19.468Z,,,15,,,1907.2749999997613,completion,1,graph-3-ld-3.png,21,43,32,0,0,0,0,43,2,,,3,176187.54500000068,176183.40499999977,174259.447,174265.75000000047,174276.13,176194.675
Stimulus + Response,canvas.Screen,1_56_1,2021-06-03T01:56:22.470Z,true,5,5,68,64,2124.269000000815,response,0,number-7-sd-2.png,55,48,52,57,59,50,53,59,5,5,click @5,7,179189.86500000028,179186.4600000008,177045.508,177048.40499999956,177062.191,179197.615
,flow.Sequence,1_56,2021-06-03T01:56:22.471Z,,,5,,,2991.7850000008184,completion,0,number-7-sd-2.png,55,48,52,57,59,50,53,59,5,,,7,179190.27500000084,179186.4600000008,176177.992,176187.7850000001,176194.675,179197.615
Stimulus + Response,canvas.Screen,1_57_1,2021-06-03T01:56:26.345Z,true,1,15,54,30,3096.6919999995735,response,0,number-7-ld-4.png,61,27,43,39,34,49,54,61,1,1,click @1,7,183065.0600000008,183061.72499999957,179948.35,179962.91999999993,179965.033,183068.071
,flow.Sequence,1_57,2021-06-03T01:56:26.346Z,,,15,,,3864.1099999995786,completion,0,number-7-ld-4.png,61,27,43,39,34,49,54,61,1,,,7,183065.6400000007,183061.72499999957,179180.932,179190.49000000086,179197.615,183068.071
Stimulus + Response,canvas.Screen,1_58_1,2021-06-03T01:56:28.574Z,true,5,5,6,-39,1404.6120000007213,response,1,graph-5-sd-3.png,81,77,84,79,86,0,0,86,5,5,click @5,5,185293.63000000012,185290.15000000072,183868.855,183878.81500000003,183885.538,185308.54
,flow.Sequence,1_58,2021-06-03T01:56:28.575Z,,,5,,,2222.0790000007255,completion,1,graph-5-sd-3.png,81,77,84,79,86,0,0,86,5,,,5,185294.20000000027,185290.15000000072,183051.388,183065.87500000023,183068.071,185308.54
Stimulus + Response,canvas.Screen,1_59_1,2021-06-03T01:56:32.238Z,true,7,5,40,-48,2911.4879999995173,response,0,number-7-sd-4.png,33,37,36,31,34,29,39,39,7,7,click @7,7,188957.57000000047,188954.07999999952,186025.909,186028.04000000106,186042.592,188962.117
,flow.Sequence,1_59,2021-06-03T01:56:32.238Z,,,5,,,3645.5399999995134,completion,0,number-7-sd-4.png,33,37,36,31,34,29,39,39,7,,,7,188957.98500000092,188954.07999999952,185291.857,185294.43999999965,185308.54,188962.117
繰り返し（実験パラメータ）,flow.Loop,1,2021-06-03T01:56:32.239Z,,,,,,151945.90199999954,completion,,,,,,,,,,,,,,,188958.35500000068,188954.07999999952,36991.495,37002.040000001216,37008.178,188962.117